"view_history","rt","trial_type","trial_index","time_elapsed","internal_node_id","response","nodesOrdering","cliqueSize","correctResponse","correctnessOfResponse","presentationNumber"
"[{""page_index"":0,""viewing_time"":2822}]","2822","instructions","0","2823","0.0-0.0","","","","","",""
"","5873","canvas-keyboard-response","1","10595","0.0-1.0-0.0-0.0","arrowright","[59,52,113,215,18,282,250,296,185,151,247,220,100,128,54,216,253,41,291,125,177,103,181,112,152,150,260,175,49,254,289,46,225,121,217,68,230,218,29,65,262,158,268,23,98,12,173,72,179,2,61,91,191,60,48,219,259,167,228,7,80,37,147,45,208,26,295,234,174,196,44,74,88,81,115,267,241,73,120,248,149,269,285,79,86,25,134,85,56,232,4,293,140,1,273,144,106,43,127,204,14,198,272,261,297,194,245,256,92,53,50,51,122,66,33,274,71,292,155,39,244,67,168,107,237,186,277,111,82,94,11,27,109,99,221,283,3,171,209,165,170,19,270,183,116,119,193,35,200,226,36,190,178,145,146,159,153,223,231,57,214,263,205,63,182,235,161,137,104,160,197,95,255,22,287,97,264,271,70,236,227,252,84,213,110,238,266,62,10,135,64,281,42,76,89,290,288,169,17,157,124,294,141,246,58,15,83,242,166,78,143,284,55,87,184,0,172,201,9,298,154,222,6,233,212,249,139,188,20,108,251,142,229,224,21,299,243,148,162,118,279,102,275,195,28,239,47,156,210,126,211,34,176,278,265,129,189,163,69,31,286,90,131,136,5,207,30,77,164,114,180,199,280,8,123,132,16,96,258,257,203,206,133,24,202,13,240,38,192,101,130,75,40,187,117,93,276,32,105,138]","100","arrowright","true","0"
"","2431","canvas-keyboard-response","2","15007","0.0-2.0-0.0-0.0","arrowleft","[18,189,108,298,98,4,51,144,268,146,156,275,130,232,12,109,285,259,293,65,31,128,33,264,93,150,52,251,247,126,29,289,77,81,202,297,21,115,39,299,72,270,198,227,85,59,218,48,208,273,242,44,152,230,175,183,55,225,223,184,95,149,282,0,76,25,136,186,181,159,47,42,262,64,263,165,288,257,69,212,213,214,5,139,253,127,224,49,92,96,14,56,107,3,274,240,43,248,191,125,90,193,177,24,70,50,267,134,197,122,32,219,243,231,261,287,71,164,160,45,61,53,104,131,99,241,17,135,101,229,73,111,277,166,167,129,23,182,86,278,258,290,114,250,256,1,201,206,40,46,78,140,102,34,161,141,28,190,286,118,7,16,203,187,296,100,284,236,221,179,6,83,234,204,292,27,62,143,89,237,280,15,245,84,37,82,138,254,211,103,173,13,246,142,260,178,117,233,235,192,283,269,30,63,169,94,91,281,272,158,174,226,151,157,209,276,266,271,133,80,195,68,199,265,217,9,116,239,57,67,35,153,244,170,147,123,137,205,291,2,249,124,66,26,252,216,185,20,41,155,121,188,162,132,120,106,19,194,172,87,168,22,112,54,60,238,119,207,295,222,220,97,255,38,75,145,163,79,228,105,10,113,74,279,36,180,176,58,11,294,196,210,154,88,110,200,215,148,171,8]","95","arrowleft","true","1"
"","2126","canvas-keyboard-response","3","19013","0.0-3.0-0.0-0.0","arrowleft","[47,280,128,49,139,129,289,144,50,174,37,249,260,252,113,215,214,83,259,101,137,206,135,257,283,288,160,122,270,45,299,290,39,195,223,27,133,292,211,4,165,66,5,117,9,219,241,106,86,68,272,38,70,19,274,226,264,263,44,22,245,284,202,51,164,287,92,16,67,72,227,191,149,80,152,103,75,148,253,231,258,293,204,161,89,104,78,100,296,294,184,189,33,136,187,87,25,40,240,279,209,173,186,102,14,46,197,250,0,224,20,228,35,29,277,99,60,286,84,158,108,118,172,30,198,151,175,95,6,243,162,91,188,255,203,115,57,10,134,156,177,247,98,54,242,180,261,265,166,64,200,42,298,17,155,234,222,107,147,76,192,31,168,85,194,143,207,285,126,181,34,131,59,74,201,150,167,237,141,163,7,140,130,58,90,239,52,61,13,183,235,146,8,88,96,212,254,269,248,230,11,233,176,268,105,282,97,281,1,159,232,69,81,229,119,238,116,262,154,127,275,94,276,2,295,109,28,153,43,24,53,23,48,221,178,273,71,266,55,82,77,62,110,73,256,244,169,179,171,123,124,142,267,56,170,12,185,65,208,120,205,218,182,225,114,251,213,32,199,21,216,297,18,196,246,291,190,41,138,93,15,271,145,157,111,121,132,193,79,236,36,63,125,217,112,210,220,26,3,278]","90","arrowleft","true","2"
"","1839","canvas-keyboard-response","4","22721","0.0-4.0-0.0-0.0"," ","[248,117,139,267,140,228,56,171,106,104,37,277,278,198,172,256,204,219,290,122,62,191,202,261,223,199,16,91,148,232,184,87,22,210,93,236,80,8,167,249,64,53,55,186,17,287,141,294,67,2,274,52,137,19,155,14,181,292,4,149,291,18,127,25,211,78,162,227,151,119,79,215,222,90,39,214,297,144,108,23,190,44,96,85,279,68,205,145,241,156,101,251,213,72,20,276,286,240,152,255,201,233,142,103,77,112,295,266,154,59,193,111,69,237,207,36,47,280,132,98,24,246,239,281,1,272,3,288,82,83,81,49,245,262,113,94,102,220,11,92,159,136,247,30,242,275,60,7,50,40,165,285,192,100,257,32,273,109,180,97,130,200,70,160,118,131,5,10,174,54,38,243,178,28,57,66,270,254,226,229,86,65,146,9,126,157,13,169,34,123,189,124,45,221,173,0,175,46,143,265,164,264,296,185,135,170,259,73,234,35,176,282,88,250,183,128,168,76,125,217,134,74,58,43,121,26,225,244,31,195,206,197,284,161,299,271,99,6,293,27,187,71,147,33,89,253,196,252,42,41,269,209,105,163,48,212,29,230,177,208,138,15,158,150,166,238,216,110,21,263,260,298,188,95,203,12,114,153,258,283,51,133,120,61,231,116,179,224,194,107,235,129,182,268,84,218,289,75,63,115]","85","arrowright","","3"
"","1138","canvas-keyboard-response","5","25834","0.0-4.1-0.1-0.1"," ","[31,249,91,262,248,34,12,119,167,138,166,245,279,136,292,289,129,76,215,219,191,15,88,95,231,212,44,37,29,257,135,131,197,56,299,9,53,67,106,103,139,73,174,275,117,0,98,250,160,264,254,172,216,14,115,218,93,178,202,130,71,16,165,149,49,92,234,200,203,126,60,137,72,47,239,179,220,38,80,122,258,256,52,277,211,111,86,64,33,51,90,114,273,123,96,158,193,272,246,237,58,294,41,105,69,144,266,17,87,77,116,185,10,224,278,30,94,3,290,109,4,269,243,295,142,263,259,214,286,61,153,206,32,83,240,251,175,171,247,113,39,27,40,35,89,261,28,236,134,59,177,284,66,81,84,169,225,181,285,210,195,291,271,120,1,296,42,192,217,287,6,267,146,107,101,22,208,19,152,62,182,79,24,282,48,186,70,55,187,133,253,108,232,104,63,148,189,125,228,157,82,159,7,145,184,204,238,252,201,45,283,213,183,170,147,194,26,100,99,57,140,163,127,235,21,128,46,141,43,198,110,180,199,188,221,298,233,54,11,156,223,176,97,150,65,13,5,274,255,124,18,143,155,242,244,102,162,260,151,226,276,23,154,205,74,196,75,8,270,68,168,132,230,50,229,297,293,121,207,112,281,161,280,85,241,190,164,36,288,227,2,268,20,265,222,209,173,25,78,118]","85","arrowright","","3"
"","1789","canvas-keyboard-response","6","29628","0.0-4.2-0.2-0.2","arrowright","[38,200,19,18,250,55,13,121,70,227,7,135,294,290,247,109,271,217,238,266,254,177,219,108,196,119,253,149,260,77,223,257,64,89,298,45,83,91,256,75,63,43,68,87,198,229,171,21,52,88,140,14,20,276,239,258,127,72,145,44,134,206,248,296,116,84,106,40,74,172,101,1,175,181,147,90,100,208,203,113,280,244,73,192,202,289,114,86,285,234,128,105,191,157,32,98,129,6,270,85,53,268,30,39,176,283,240,16,222,0,235,279,291,5,41,221,111,267,49,50,138,97,141,126,104,99,69,245,158,10,252,185,155,42,139,230,299,195,107,115,62,95,211,264,166,261,60,237,180,287,34,249,236,46,117,11,120,23,284,169,201,188,112,186,154,81,292,143,278,94,173,153,273,29,272,156,220,199,282,170,103,96,164,124,182,225,295,137,66,132,65,288,37,3,118,17,136,130,263,184,183,59,67,80,133,92,233,281,259,4,228,218,159,209,2,194,123,8,144,204,33,151,27,197,35,265,189,31,232,205,56,122,262,150,12,93,242,255,163,277,293,25,22,58,148,165,125,178,28,54,82,71,78,26,214,215,160,146,269,57,167,102,15,24,213,187,251,36,161,274,212,168,241,9,142,286,174,152,275,179,224,48,193,246,231,190,51,297,131,47,79,76,243,226,210,162,207,216,110,61]","85","arrowright","true","3"
"","1047","canvas-keyboard-response","7","32961","0.0-5.0-0.0-0.0"," ","[56,122,223,246,219,171,154,195,44,156,292,226,280,82,148,183,163,127,181,250,68,244,79,70,262,117,194,173,182,118,269,153,176,206,267,58,27,248,100,214,180,81,207,5,210,164,167,174,104,76,237,93,227,249,26,220,239,201,203,78,216,158,138,168,255,55,62,28,166,132,288,217,37,177,152,145,9,296,16,94,188,270,91,25,289,143,41,40,22,192,185,42,53,97,142,90,161,222,46,20,205,243,265,139,232,238,275,57,126,281,215,39,198,54,130,209,294,89,120,295,141,38,162,286,85,3,36,260,71,276,115,87,245,102,61,236,63,298,259,157,66,34,184,144,49,261,247,230,287,10,133,21,114,64,155,112,30,103,47,43,80,283,285,24,179,84,52,8,2,258,23,160,229,263,293,92,4,110,113,196,165,147,59,233,264,146,151,99,268,129,69,14,284,202,33,211,50,137,45,278,60,119,277,242,199,252,254,297,193,65,101,175,131,95,88,17,290,111,11,18,136,190,197,1,108,234,172,159,150,256,169,170,200,186,125,107,178,74,121,271,208,274,241,116,140,282,266,135,73,149,273,75,77,109,19,0,299,228,15,96,123,221,98,6,231,29,31,12,106,35,13,86,213,212,257,72,124,187,279,51,128,225,251,105,7,291,240,189,83,272,191,48,224,67,134,204,32,218,253,235]","80","arrowleft","","4"
"","775","canvas-keyboard-response","8","35841","0.0-5.1-0.1-0.1","arrowleft","[75,3,238,217,88,209,79,52,128,247,69,54,224,177,46,121,159,100,108,201,291,56,67,179,139,156,186,11,193,182,10,275,267,223,172,256,62,168,97,203,221,126,180,250,7,208,207,16,253,239,166,106,164,122,38,59,281,199,231,284,65,251,185,148,287,248,149,271,241,194,190,83,162,175,24,116,160,292,40,64,228,290,181,80,127,268,280,169,45,74,171,144,95,211,33,22,113,288,1,222,263,17,264,2,117,82,70,103,178,18,71,39,138,66,242,197,219,131,274,87,165,198,286,155,293,44,91,214,220,6,218,12,112,110,68,129,8,272,19,260,279,0,102,236,94,28,136,36,285,176,104,191,157,32,114,53,90,99,15,29,48,187,78,105,130,132,86,173,259,60,289,161,163,4,118,31,269,151,50,57,141,134,89,282,125,154,296,37,34,225,42,150,76,213,13,192,14,227,153,55,252,210,262,145,43,142,215,73,135,212,277,5,20,115,204,283,23,261,61,58,146,9,254,26,230,206,235,140,109,84,232,216,25,147,120,47,233,249,152,188,41,234,101,111,205,266,255,276,93,77,237,295,119,265,273,170,278,202,257,92,297,299,189,133,85,196,240,298,81,30,137,123,35,229,72,21,200,27,243,158,98,63,270,107,124,195,167,258,96,294,245,246,226,51,49,143,184,244,183,174]","80","arrowleft","true","4"
"","1140","canvas-keyboard-response","9","38912","0.0-6.0-0.0-0.0"," ","[201,15,21,267,89,11,120,85,35,273,186,39,245,5,226,195,243,297,146,176,148,28,57,258,289,292,257,61,83,66,194,279,151,91,234,69,229,100,250,265,261,106,164,266,180,88,214,128,241,154,76,135,268,208,124,205,277,249,230,6,264,10,20,252,209,117,24,182,276,13,29,281,22,93,221,274,213,33,75,254,125,107,184,142,161,178,284,141,216,272,140,152,12,282,23,48,298,206,46,150,169,155,163,294,228,253,287,179,50,16,248,112,160,118,65,238,51,286,172,159,78,70,138,199,8,26,167,275,193,18,177,192,200,191,25,233,63,280,166,196,53,168,97,158,240,170,231,77,110,122,132,237,42,296,30,211,111,114,137,68,144,82,99,295,0,149,44,60,56,45,293,131,227,232,210,217,251,283,147,136,174,104,14,49,109,197,130,204,17,219,189,62,162,239,103,86,115,37,81,67,278,236,90,256,119,55,74,299,19,291,52,185,126,188,4,242,41,123,247,129,244,92,198,157,223,58,165,187,262,73,38,7,235,32,288,80,1,105,224,218,34,203,3,246,71,43,207,259,27,72,181,183,156,95,113,153,64,116,84,202,108,220,269,79,36,255,171,225,94,59,127,290,285,271,47,134,143,9,270,222,175,101,87,139,133,260,31,54,40,96,212,102,2,263,190,121,98,145,215,173]","75","arrowleft","","5"
"","1489","canvas-keyboard-response","10","42297","0.0-6.1-0.1-0.1","arrowleft","[218,201,291,69,39,253,102,258,250,245,248,36,66,3,149,80,228,101,17,186,114,230,58,142,2,70,79,95,284,16,274,130,178,246,28,56,239,169,55,174,91,191,195,285,185,254,42,216,13,92,184,113,251,199,89,290,9,118,26,163,155,189,222,170,12,263,117,206,288,278,214,281,232,99,151,243,241,67,193,68,252,298,64,205,108,116,32,175,225,266,235,88,45,54,161,86,123,180,160,194,209,238,7,74,150,286,267,165,77,44,211,115,264,57,76,106,256,133,20,220,289,134,97,203,83,24,19,11,15,183,226,181,5,131,43,41,145,223,213,59,34,49,128,277,25,37,35,75,196,182,65,275,111,18,122,152,63,119,176,110,293,171,190,78,197,139,94,105,242,1,144,276,244,179,159,294,198,219,90,141,107,147,126,292,61,233,143,38,109,208,52,104,127,73,23,296,172,166,279,140,112,227,268,157,192,22,138,137,46,200,287,121,30,299,132,247,272,84,280,120,234,50,259,168,295,269,85,164,237,249,282,265,93,146,72,48,71,6,221,62,4,229,10,21,31,257,240,255,261,40,124,47,262,96,14,81,231,271,87,103,204,283,33,154,162,125,202,129,135,210,100,60,273,188,82,51,224,53,0,98,27,187,236,212,148,158,8,173,167,297,136,270,217,260,215,153,156,207,177,29]","75","arrowleft","true","5"
"","1709","canvas-keyboard-response","11","46021","0.0-7.0-0.0-0.0"," ","[129,214,223,48,248,10,243,134,163,260,24,181,7,153,14,13,232,168,149,27,44,200,165,234,264,71,33,0,135,53,86,250,59,190,192,136,230,274,193,235,171,124,16,35,161,51,9,298,292,280,67,198,285,47,159,75,247,147,90,254,19,296,160,100,231,205,202,289,22,78,109,105,275,246,83,21,111,169,150,278,8,125,11,137,110,49,118,142,287,208,195,151,42,299,215,121,251,282,74,119,157,88,81,185,31,201,60,166,70,245,155,117,189,277,290,279,257,217,184,222,187,213,252,93,80,204,58,104,146,30,38,144,199,229,61,41,18,276,203,218,128,249,12,145,39,220,43,76,270,3,72,2,116,212,130,173,295,96,101,194,28,94,242,268,261,122,29,79,68,15,113,92,114,267,210,179,141,89,46,256,64,156,139,107,186,224,206,127,99,95,216,138,238,85,281,175,5,262,63,269,233,209,236,132,197,98,237,148,56,123,140,112,37,176,20,77,115,91,102,272,126,291,226,266,182,45,32,255,294,36,191,265,253,54,82,188,207,172,65,62,183,174,227,17,170,34,258,120,164,97,131,225,106,180,211,133,26,162,55,52,239,69,271,273,40,263,228,66,293,154,241,178,177,143,286,152,1,259,221,6,73,283,25,167,158,87,240,244,288,84,219,284,108,57,297,50,23,103,4,196]","70","arrowright","","6"
"","104","canvas-keyboard-response","12","48914","0.0-7.1-0.1-0.1"," ","[143,148,134,216,239,187,238,189,88,293,79,261,237,35,4,71,98,110,215,193,250,145,23,207,235,53,102,65,70,95,263,172,253,125,6,163,59,33,36,100,232,269,69,281,130,183,170,115,90,12,60,280,254,279,182,234,260,152,195,146,139,255,198,208,203,13,43,242,284,32,96,190,244,283,55,151,111,210,231,176,220,15,51,103,201,144,116,169,19,24,41,46,276,80,47,191,153,272,83,299,202,11,225,117,108,120,27,97,127,29,18,25,185,246,264,155,135,20,118,168,45,122,28,0,34,219,186,240,58,212,39,91,181,206,184,149,177,217,136,296,200,291,1,140,2,9,213,87,268,241,223,270,142,230,214,14,63,48,211,44,192,160,141,243,56,221,67,171,128,54,30,157,31,61,22,277,77,7,294,259,119,245,131,165,199,105,249,282,248,133,233,8,205,38,278,204,258,99,40,236,273,21,10,66,37,75,164,175,78,52,101,121,271,267,50,104,226,180,224,251,92,49,109,137,166,81,196,265,112,89,287,72,197,76,173,297,285,161,16,167,209,124,126,84,150,222,74,113,57,154,159,179,252,5,42,62,257,290,298,229,194,147,114,275,274,228,68,262,85,188,218,73,26,17,266,106,86,295,156,286,138,132,289,288,64,158,178,3,227,162,174,107,93,292,94,82,247,123,256,129]","70","arrowright","","6"
"","1058","canvas-keyboard-response","13","55918","0.0-7.2-0.2-0.2"," ","[22,56,276,162,86,136,120,2,240,288,13,17,57,272,297,39,214,130,129,224,201,92,168,134,153,127,249,287,9,197,154,155,103,0,143,72,278,237,19,45,169,6,100,102,28,290,187,218,253,42,122,213,112,275,219,76,90,63,256,47,222,124,230,247,200,250,66,139,163,199,221,40,298,46,198,181,207,80,161,141,261,196,257,75,119,166,281,264,177,184,283,68,97,96,48,149,182,78,5,295,274,98,241,91,107,286,236,202,109,32,137,1,60,108,194,125,73,118,296,179,227,145,228,59,206,27,254,167,111,89,190,203,195,242,234,285,94,99,245,87,277,255,116,226,106,267,265,176,49,260,294,248,142,191,138,263,152,193,84,64,23,204,81,280,11,172,259,223,171,43,21,58,126,210,271,252,158,33,173,114,165,279,284,156,31,269,186,164,148,41,105,50,192,212,10,140,12,79,157,146,29,71,16,35,266,175,95,52,26,93,14,82,25,244,299,220,273,238,178,235,292,147,18,251,270,133,170,121,85,88,150,225,69,62,38,151,83,233,113,232,216,211,77,231,37,24,215,246,132,135,268,65,239,160,159,117,174,262,128,291,34,74,15,217,51,101,20,293,54,53,282,229,4,205,123,67,104,55,243,289,189,180,36,188,258,44,208,131,144,8,185,7,115,110,30,61,3,183,209,70]","70","arrowright","","6"
"","4604","canvas-keyboard-response","14","64371","0.0-7.3-0.3-0.3","arrowright","[261,4,290,119,193,221,132,50,249,80,17,255,185,56,270,219,264,143,59,268,297,235,36,272,145,131,128,137,24,147,2,239,166,65,82,256,298,6,229,54,94,70,285,173,257,68,21,113,293,13,67,83,133,84,228,0,212,73,110,245,231,109,5,100,156,111,124,118,74,75,149,195,168,95,276,254,178,232,278,269,63,158,289,182,9,240,138,179,283,190,37,176,41,180,115,244,20,45,142,292,280,32,3,25,184,274,38,136,197,28,169,260,225,120,273,243,64,174,81,101,159,72,206,205,262,71,181,200,43,140,122,69,186,1,18,279,96,117,171,196,7,88,90,8,112,34,277,130,92,148,247,201,230,214,129,114,211,139,250,161,105,152,157,144,104,66,259,265,164,53,295,165,116,218,11,97,209,281,44,35,267,291,154,163,58,258,207,78,135,61,99,33,288,253,121,155,93,234,89,188,199,19,202,151,60,40,107,172,22,216,55,191,223,47,183,10,246,226,175,57,15,287,248,62,102,284,87,198,286,146,103,210,222,127,160,217,46,108,26,98,48,275,233,16,49,227,187,177,23,14,271,85,91,126,241,31,282,51,77,224,203,251,153,266,192,150,52,252,220,263,12,162,141,237,106,86,79,215,189,294,238,27,208,29,167,39,134,123,299,76,42,213,236,30,194,125,204,170,296,242]","70","arrowright","true","6"
"","2127","canvas-keyboard-response","15","68351","0.0-8.0-0.0-0.0"," ","[92,118,176,165,179,213,37,115,8,252,199,46,55,222,9,49,215,242,96,248,153,91,117,112,63,135,13,247,98,149,168,48,57,233,230,69,274,114,283,110,45,294,128,41,134,21,275,161,124,0,22,224,246,172,180,296,190,108,58,185,106,209,81,18,60,156,44,266,255,184,170,90,207,218,100,88,256,130,76,132,20,162,103,203,188,84,273,42,287,260,212,285,53,244,89,288,201,164,31,289,150,297,24,107,281,131,111,182,50,189,140,173,120,292,254,59,175,66,237,269,139,74,47,17,133,109,216,87,240,259,122,104,32,265,86,219,136,7,251,250,262,127,70,202,67,245,210,228,83,25,174,73,239,243,125,72,61,11,142,65,279,194,200,211,62,116,152,79,276,271,195,15,208,217,197,270,145,75,119,28,56,299,225,183,220,1,232,10,35,113,85,293,19,68,129,193,263,95,36,97,249,34,23,236,169,93,141,158,12,163,138,171,241,258,151,137,264,234,295,43,159,80,64,40,121,5,3,290,33,105,186,144,227,198,280,6,77,52,235,223,291,26,94,196,231,157,51,54,187,148,229,278,205,101,267,191,177,167,204,282,143,298,268,160,38,71,178,99,102,257,16,82,147,214,221,166,2,146,261,181,123,206,192,272,4,14,30,39,226,284,126,277,29,286,78,238,154,253,155,27]","65","arrowright","","7"
"","2633","canvas-keyboard-response","16","73382","0.0-8.1-0.1-0.1","arrowright","[106,128,127,83,244,255,66,124,187,183,200,230,135,242,274,209,193,226,74,159,177,121,257,213,48,65,84,45,67,191,20,113,204,258,72,54,195,206,53,219,236,140,111,163,94,283,154,253,271,181,132,34,12,285,35,116,295,130,8,22,61,40,188,178,299,80,296,68,148,150,192,104,248,26,180,63,70,0,261,89,273,158,85,164,249,114,105,97,233,136,279,81,290,167,220,112,162,254,291,298,38,147,256,123,93,216,102,1,2,144,59,275,235,33,103,239,156,208,46,141,175,222,37,168,42,172,245,229,118,247,99,120,143,268,297,207,151,19,73,170,108,100,50,62,263,153,281,125,107,210,173,227,224,64,185,110,6,52,134,289,142,211,174,269,149,129,119,246,231,87,262,190,286,272,234,264,30,182,196,284,214,169,25,189,266,267,251,250,29,101,176,98,21,201,199,293,278,9,5,92,179,270,77,122,194,91,138,292,217,161,23,82,16,186,18,277,160,276,13,36,280,243,166,14,259,202,145,131,152,265,15,3,117,139,4,205,238,215,212,7,232,58,223,17,31,47,126,137,294,203,10,49,260,252,88,287,44,115,90,28,198,240,197,184,155,86,71,51,218,282,237,171,96,11,57,225,157,41,221,32,75,95,78,228,69,109,165,24,27,55,146,43,241,79,39,288,133,60,56,76]","65","arrowright","true","7"
"","440","canvas-keyboard-response","17","75699","0.0-9.0-0.0-0.0"," ","[3,219,52,195,116,217,124,182,27,79,19,2,32,121,45,117,269,190,54,258,35,153,221,18,1,283,260,66,8,132,108,81,50,64,250,28,214,80,188,16,204,158,297,247,100,133,41,201,168,37,189,113,256,243,103,0,186,257,21,49,141,148,130,179,220,222,96,25,265,229,199,276,140,299,36,185,286,24,97,200,293,94,230,205,44,114,271,255,76,218,73,122,119,144,191,67,150,112,279,138,53,15,183,289,151,87,263,95,60,210,75,264,51,298,55,93,90,22,245,244,7,228,136,295,83,267,236,194,118,152,82,129,272,57,65,275,216,88,123,23,231,109,126,178,203,110,86,175,212,215,6,227,192,287,99,63,251,241,234,115,33,242,277,105,9,184,209,70,157,259,17,61,125,26,180,13,239,211,171,92,127,232,268,273,224,225,288,137,4,30,91,176,40,139,77,252,120,128,59,266,223,46,58,143,89,12,226,142,78,181,135,262,98,233,161,101,237,248,10,155,11,69,292,285,160,38,47,31,39,20,131,42,196,284,274,163,134,207,29,71,72,206,235,104,296,43,208,156,254,68,270,14,202,174,84,213,172,290,249,282,173,198,162,278,170,187,197,5,102,167,74,34,240,294,62,193,107,166,56,281,165,48,238,106,164,149,169,280,177,253,146,261,246,145,154,147,111,85,159,291]","60","arrowright","","8"
"","1517","canvas-keyboard-response","18","79127","0.0-9.1-0.1-0.1"," ","[56,153,28,175,288,278,135,32,238,277,185,220,145,44,268,36,180,131,287,247,82,221,90,171,141,15,203,189,267,101,243,292,196,70,105,84,102,52,13,20,2,188,239,258,69,266,125,97,255,33,260,252,128,23,293,117,116,59,284,151,169,7,261,156,225,253,96,68,297,280,142,242,50,271,148,31,227,27,67,234,200,1,194,109,35,144,107,78,236,218,265,254,205,163,63,160,224,62,240,46,91,250,122,248,290,177,57,150,6,158,190,275,29,11,231,272,41,76,130,184,25,152,207,12,18,54,83,257,88,55,212,216,279,77,72,157,246,16,10,49,119,93,123,60,26,178,273,164,251,47,89,211,87,192,66,167,8,289,291,195,154,22,262,19,143,159,198,219,276,103,214,166,149,5,245,199,94,126,58,0,95,43,179,174,124,136,182,183,173,209,112,139,86,114,104,140,286,106,129,172,215,39,73,98,226,30,191,81,48,197,137,298,127,274,222,61,45,85,115,17,42,165,232,244,168,193,4,187,296,64,71,281,132,206,210,282,146,235,269,161,181,138,111,113,79,53,204,24,51,229,133,40,37,38,170,134,295,249,74,217,155,176,285,230,264,34,241,14,110,270,237,201,228,21,100,75,263,162,259,9,299,3,256,294,92,80,120,65,208,213,223,108,118,186,202,147,233,99,283,121]","60","arrowright","","8"
"","2827","canvas-keyboard-response","19","83943","0.0-9.2-0.2-0.2","arrowleft","[39,37,44,120,132,173,163,150,256,118,119,10,4,139,271,226,251,220,5,46,38,290,27,42,285,95,205,60,201,164,298,171,1,107,21,177,145,245,229,274,275,176,212,204,16,168,81,87,2,101,179,115,49,57,149,217,234,63,67,227,9,247,283,223,79,235,33,194,167,293,43,269,232,18,66,54,259,158,36,121,64,90,45,218,133,287,278,296,41,56,250,151,62,248,85,50,78,208,170,162,175,280,147,282,134,31,97,214,55,152,299,19,239,58,265,284,20,129,53,203,105,197,82,30,127,294,3,260,289,125,106,72,128,240,216,198,157,233,123,135,230,22,210,241,244,65,117,153,124,172,266,277,169,209,267,141,174,76,211,109,89,28,279,200,29,103,111,273,184,112,196,140,246,252,288,84,23,261,68,94,102,52,146,272,193,262,7,295,155,183,187,276,110,219,144,254,122,195,0,154,281,231,188,143,270,199,100,12,228,138,221,148,113,71,225,59,96,14,40,165,51,249,206,180,24,222,238,61,88,215,202,136,186,243,258,116,32,268,11,114,190,108,166,92,73,98,253,86,142,207,189,213,185,130,80,237,34,131,192,74,242,47,35,160,17,69,182,8,161,191,159,257,83,104,126,178,286,264,25,13,181,263,236,224,137,15,93,48,75,77,156,297,99,292,70,6,255,91,291,26]","60","arrowright","false","8"
"","3238","canvas-keyboard-response","20","89083","0.0-10.0-0.0-0.0","arrowright","[247,296,151,75,51,295,236,36,66,57,60,283,281,117,217,228,108,124,3,215,24,150,64,238,91,204,39,61,201,130,225,271,291,107,272,6,284,169,186,189,8,28,11,96,55,187,292,163,178,102,35,126,140,21,252,145,65,81,77,106,146,141,17,282,270,224,256,133,210,230,84,125,221,280,248,70,100,78,103,32,72,250,269,33,162,41,7,105,184,45,237,54,180,179,43,286,267,53,231,5,173,40,239,196,156,202,4,278,47,95,216,89,172,192,226,152,136,139,159,73,198,158,86,58,119,175,114,69,206,62,218,167,143,164,249,265,94,279,85,14,83,19,142,104,38,26,195,182,294,1,29,191,181,121,289,245,240,208,298,259,82,253,288,274,148,297,12,113,2,52,90,132,42,134,234,116,200,261,171,138,44,227,34,220,112,0,15,203,232,63,194,37,243,207,160,263,157,23,254,13,214,122,68,154,111,48,67,10,233,212,56,241,190,166,273,299,229,123,92,27,257,223,80,242,235,110,49,213,16,115,262,255,128,120,46,30,20,174,246,98,137,199,293,258,185,59,74,165,168,183,264,251,177,99,22,205,93,176,155,222,88,260,97,277,118,285,76,153,268,129,219,209,79,244,135,101,276,71,266,127,161,147,290,9,287,211,188,193,197,275,144,18,109,170,25,50,87,31,131,149]","55","arrowright","true","9"
"","2937","canvas-keyboard-response","21","93996","0.0-11.0-0.0-0.0"," ","[166,183,242,70,113,146,273,247,93,36,55,72,216,15,223,24,90,182,99,108,91,39,110,241,219,47,28,185,233,149,202,245,80,124,256,45,57,101,180,257,94,208,10,169,205,263,170,283,104,168,67,30,230,71,31,267,20,190,8,49,287,285,204,105,144,163,78,50,23,225,189,239,264,295,288,188,139,217,191,207,84,13,203,279,123,151,98,259,112,1,81,177,158,7,40,6,258,125,195,107,100,298,164,231,132,221,143,266,281,38,152,79,228,102,187,19,88,0,155,3,4,232,179,291,127,270,161,154,133,226,197,244,210,140,65,252,224,271,109,68,248,56,43,148,29,32,268,240,200,296,222,255,25,18,74,265,251,243,199,254,83,294,138,184,178,59,159,35,118,238,141,196,42,142,277,280,126,5,262,46,131,282,136,160,106,69,44,156,128,212,86,209,194,246,37,153,63,95,249,211,77,129,201,181,58,21,290,26,103,134,82,176,111,299,9,173,293,284,165,167,157,52,261,119,27,116,89,214,61,297,87,137,75,64,120,145,51,122,218,16,11,130,276,150,2,60,85,236,48,175,41,227,198,53,33,66,17,286,34,117,272,96,186,274,147,206,253,121,229,250,172,292,220,76,237,135,62,162,260,115,193,192,269,234,174,97,289,92,171,278,73,275,12,22,14,235,213,114,215,54]","50","arrowleft","","10"
"","2622","canvas-keyboard-response","22","98575","0.0-11.1-0.1-0.1","arrowleft","[156,256,186,199,267,110,214,249,136,216,1,92,45,222,120,170,2,283,24,90,284,96,202,248,135,182,298,49,151,160,144,236,13,240,139,197,37,184,59,34,294,209,48,299,258,142,27,109,175,62,260,17,220,74,176,212,147,238,185,70,117,119,123,114,25,30,208,217,84,266,31,36,230,245,171,244,205,71,132,292,115,285,194,22,226,237,271,56,77,107,193,26,18,276,270,262,60,97,134,50,152,150,204,172,54,279,82,296,57,20,89,23,87,64,295,181,128,196,0,250,211,100,83,55,206,133,195,93,288,243,190,265,246,61,39,252,41,201,7,241,189,293,164,259,169,43,42,88,118,290,99,78,277,68,272,192,157,33,72,75,253,95,261,229,141,126,219,94,29,174,232,225,137,163,125,178,63,5,153,9,121,282,10,105,269,167,38,162,210,257,158,79,47,251,65,3,159,223,40,98,12,53,58,207,286,35,6,85,275,224,231,140,155,215,116,145,173,218,154,146,281,66,177,8,161,69,91,149,111,287,228,102,165,254,46,148,15,86,44,263,113,143,51,187,104,247,213,239,289,80,221,297,112,81,233,191,129,19,273,198,180,227,4,268,103,28,264,73,200,291,76,255,166,11,32,14,130,131,280,101,235,179,127,67,106,278,21,16,188,183,203,122,138,234,108,242,52,168,274,124]","50","arrowleft","true","10"
"","2626","canvas-keyboard-response","23","103121","0.0-12.0-0.0-0.0","arrowleft","[284,139,243,84,167,264,26,146,232,188,29,37,85,42,169,160,89,163,200,140,297,281,131,226,230,115,95,234,127,76,275,261,128,13,164,229,208,52,177,294,231,186,222,9,40,219,216,201,116,100,183,15,299,129,266,69,27,105,31,228,32,58,227,121,194,174,170,114,83,106,290,24,145,257,268,241,255,33,56,38,267,150,215,122,137,80,256,43,179,242,191,218,209,155,250,98,17,118,28,197,82,5,108,195,252,41,277,90,238,171,96,181,19,79,88,270,210,61,214,72,263,65,101,66,46,239,259,8,187,166,135,161,104,11,74,157,109,107,280,296,113,151,292,93,274,211,18,203,21,70,212,7,262,119,180,125,159,23,148,278,287,185,35,190,71,245,283,273,6,246,143,16,224,110,260,44,271,182,48,141,223,123,45,94,78,265,192,202,158,126,168,253,199,81,2,162,196,112,22,111,57,49,272,47,288,254,240,92,99,178,175,176,147,237,25,124,204,207,73,248,289,64,144,62,291,173,236,20,249,172,235,68,87,39,134,60,247,138,213,220,225,51,86,91,153,4,189,293,205,198,133,67,286,136,154,295,77,142,50,258,30,102,193,53,54,36,0,269,55,10,120,152,156,59,285,251,279,1,233,130,184,206,34,165,14,12,298,117,276,282,221,149,132,103,63,217,97,3,75,244]","45","arrowleft","true","11"
"","4045","canvas-keyboard-response","24","109010","0.0-13.0-0.0-0.0","arrowleft","[206,127,132,80,18,280,274,23,257,106,208,119,171,186,7,197,229,10,135,261,94,196,191,28,260,82,239,138,61,145,115,286,299,22,20,214,284,273,267,84,166,178,263,262,64,83,88,249,200,78,25,170,225,227,17,26,164,282,159,45,265,272,150,62,292,241,168,12,228,151,288,275,165,137,121,183,87,142,3,113,59,199,96,123,67,114,193,71,192,195,250,245,154,244,16,180,81,201,4,56,235,185,117,120,176,68,1,60,57,72,148,259,32,173,155,8,211,100,269,221,46,37,163,15,51,237,93,79,85,236,283,223,40,153,291,243,55,161,136,198,287,253,74,290,70,58,125,0,152,33,189,86,277,29,122,248,77,134,31,157,218,52,14,182,203,97,107,181,144,75,247,238,194,190,63,41,89,104,298,130,264,204,131,246,102,231,162,240,289,73,143,209,212,175,232,129,116,95,252,213,13,184,54,103,169,43,9,42,49,147,294,230,216,19,242,295,297,296,215,44,101,69,128,217,226,276,258,177,53,271,133,124,24,139,34,47,210,65,66,140,21,220,256,158,202,91,108,2,266,112,36,270,254,234,6,76,35,251,233,255,5,279,27,126,268,188,207,98,293,160,179,50,156,11,105,99,285,222,38,149,48,111,141,187,39,109,118,110,92,281,224,90,172,205,146,219,278,30,167,174]","40","arrowleft","true","12"
"","1792","canvas-keyboard-response","25","112666","0.0-14.0-0.0-0.0","arrowright","[298,21,96,60,163,49,111,141,66,286,126,113,10,202,169,263,204,199,191,175,253,232,290,1,274,42,119,35,179,254,44,94,43,212,57,23,287,215,117,210,69,226,4,277,140,152,294,120,150,159,207,79,259,160,265,85,249,173,143,116,101,24,236,145,174,48,218,209,233,59,33,52,55,51,45,275,8,146,167,221,115,192,243,244,107,266,18,270,177,77,162,271,53,64,76,237,14,269,279,262,291,295,229,54,176,231,178,61,149,71,81,156,86,11,242,32,297,124,171,89,189,170,165,90,139,138,264,219,95,62,208,213,39,84,276,186,110,158,255,195,200,56,283,296,251,206,193,161,37,118,80,272,131,72,151,83,26,203,280,239,74,47,282,214,5,166,225,180,105,260,250,223,0,70,142,227,112,268,19,256,172,132,29,7,50,15,234,278,285,28,36,134,22,130,30,181,185,27,217,245,20,25,128,109,153,137,164,184,73,216,154,220,157,284,228,9,258,273,224,230,91,281,108,248,58,187,68,67,88,246,182,241,261,46,252,135,103,235,288,299,98,257,194,31,6,198,292,102,144,168,92,125,289,201,75,114,205,222,122,2,190,82,65,41,16,40,97,38,87,238,17,99,155,196,197,188,121,106,123,13,12,3,78,240,247,147,267,93,127,293,211,136,148,104,183,100,63,133,129,34]","35","arrowright","true","13"
"","523","canvas-keyboard-response","26","115038","0.0-15.0-0.0-0.0"," ","[272,55,94,252,70,219,290,200,237,193,241,263,209,244,43,262,53,257,24,81,124,259,66,173,185,236,232,172,25,207,85,104,265,233,131,39,12,44,89,79,126,166,135,113,298,161,99,92,158,230,78,65,289,202,190,0,98,123,168,68,198,181,122,52,7,143,30,58,130,133,295,255,223,258,294,84,179,35,197,48,61,169,153,167,32,222,63,245,109,238,231,192,282,140,15,73,90,267,248,218,141,27,105,156,2,150,100,274,110,250,155,118,293,46,176,189,8,4,125,138,266,11,281,14,82,235,20,174,246,199,291,278,57,37,253,269,287,45,96,88,108,86,72,191,249,216,41,152,205,183,163,40,175,139,49,227,93,51,203,251,97,76,164,171,91,64,264,77,196,13,136,23,256,283,186,121,234,6,187,247,87,134,21,229,225,9,214,254,292,119,102,273,129,26,201,204,268,127,212,19,180,62,279,31,75,60,270,213,56,224,116,117,277,114,286,59,10,149,215,22,275,288,144,296,142,74,177,228,107,239,115,71,145,80,194,28,111,34,47,284,211,165,146,120,217,69,112,276,42,206,280,162,261,38,243,17,157,184,208,188,5,221,242,101,160,54,67,16,137,154,151,29,148,178,1,3,182,36,226,132,106,50,33,128,170,103,220,210,195,159,83,240,95,285,271,18,297,147,299,260]","30","arrowleft","","14"
"","1458","canvas-keyboard-response","27","118378","0.0-15.1-0.1-0.1"," ","[122,174,16,257,241,162,78,213,181,54,111,39,172,193,228,1,109,64,87,299,7,269,295,187,36,293,154,252,198,46,207,42,47,139,168,43,60,192,153,128,56,164,231,224,94,249,104,250,90,221,103,194,243,215,188,179,108,264,80,40,265,298,239,10,112,294,136,149,107,214,208,183,161,132,145,124,102,186,83,282,163,196,150,234,58,68,216,118,191,120,82,25,263,286,146,254,227,33,184,226,101,167,279,5,222,26,15,275,31,110,251,30,116,92,81,89,220,27,199,238,14,195,98,166,48,143,9,160,131,171,34,96,276,170,129,29,165,38,133,21,141,69,11,28,125,177,49,50,13,105,292,173,280,75,274,86,157,24,45,260,219,175,152,23,242,267,237,278,169,283,180,261,137,53,217,185,273,126,85,0,271,247,123,232,255,202,266,270,67,37,72,2,106,93,44,201,41,20,59,189,97,235,77,4,8,55,142,288,236,70,159,245,66,233,22,246,289,272,248,17,115,256,244,155,190,206,19,12,121,91,62,203,262,140,297,119,114,178,3,113,176,284,88,130,138,197,253,209,200,148,182,230,223,73,291,281,156,144,52,76,285,296,218,71,135,74,290,65,158,127,287,32,18,240,151,61,51,205,277,84,79,268,210,6,212,117,147,99,57,259,211,258,134,225,100,229,204,95,35,63]","30","arrowleft","","14"
"","858","canvas-keyboard-response","28","121292","0.0-15.2-0.2-0.2"," ","[197,40,272,286,251,282,250,28,63,13,167,266,101,200,176,37,190,3,244,203,216,298,103,70,256,42,100,87,258,181,201,7,60,146,21,254,233,243,212,207,0,288,125,242,118,267,223,161,202,166,142,175,19,153,221,23,8,173,90,6,236,135,246,183,47,131,253,292,198,230,257,111,68,232,30,102,231,211,61,159,14,208,178,64,33,169,83,268,69,51,96,62,227,116,52,106,76,77,157,204,296,66,194,49,229,156,44,54,88,84,67,128,264,75,293,57,123,85,82,97,140,16,218,259,25,119,109,79,179,228,170,126,130,129,252,276,104,188,297,163,155,17,11,287,124,150,193,50,22,278,73,214,274,177,29,12,46,98,238,290,265,48,294,295,147,20,220,217,39,72,285,74,205,289,172,158,139,213,249,160,24,127,281,9,184,93,27,18,234,115,92,5,273,206,132,144,240,80,2,143,91,248,195,117,95,255,134,283,299,112,262,34,168,78,192,89,270,245,275,141,81,235,260,58,136,26,94,145,164,120,182,149,10,113,237,1,187,261,138,191,271,114,41,291,224,4,53,241,110,56,15,199,196,174,45,86,215,59,247,280,36,148,277,210,99,209,284,219,55,38,185,108,43,225,71,122,107,105,222,151,162,180,35,226,239,31,186,165,263,279,189,32,133,121,152,137,154,269,65,171]","30","arrowleft","","14"
"","1495","canvas-keyboard-response","29","125326","0.0-15.3-0.3-0.3","arrowright","[259,149,102,156,114,269,68,129,76,28,166,89,27,56,216,60,164,165,0,15,297,155,186,255,225,146,59,12,145,193,4,231,278,167,90,61,279,62,47,276,106,250,130,274,227,20,242,256,163,87,241,275,19,251,2,295,127,92,261,98,252,134,41,208,112,209,132,21,281,79,182,36,14,50,77,247,6,237,82,22,133,105,168,284,63,52,283,110,288,121,38,292,103,58,299,293,74,72,244,113,25,289,78,282,5,198,141,298,125,48,33,277,207,80,119,266,148,210,263,135,291,126,45,51,65,40,257,173,287,196,91,138,214,13,69,96,273,17,128,201,16,55,228,71,84,211,286,88,183,1,229,158,185,57,147,184,97,170,131,81,218,199,204,10,265,179,70,246,178,26,124,197,118,144,233,174,83,100,290,139,162,236,271,153,213,3,160,187,240,188,18,217,223,53,224,154,262,215,194,117,142,46,8,239,9,234,219,85,7,272,171,226,94,29,235,253,93,161,30,32,123,177,238,294,205,67,232,66,268,169,285,122,34,75,206,260,151,202,95,104,220,192,136,73,39,159,42,248,152,203,24,35,258,267,31,11,189,99,150,254,191,264,176,116,243,222,143,101,175,181,115,43,107,49,64,23,86,157,195,44,212,108,270,296,245,111,37,249,230,221,54,137,180,190,280,109,120,200,140,172]","30","arrowleft","false","14"
"","1580","canvas-keyboard-response","30","129227","0.0-16.0-0.0-0.0","arrowleft","[61,233,219,287,116,49,98,149,91,47,80,262,132,289,117,95,67,269,79,141,159,283,172,121,268,140,70,292,68,93,243,253,227,218,232,282,164,111,2,165,40,183,263,4,8,203,186,103,81,45,250,270,17,280,31,173,71,210,107,249,130,146,170,245,156,187,48,62,281,255,148,36,171,194,221,257,161,115,39,127,163,271,206,264,184,33,65,14,205,30,44,63,18,86,74,129,0,177,13,104,133,87,101,112,256,174,190,275,211,124,125,277,69,102,181,202,6,92,135,153,201,196,197,239,160,295,27,162,279,134,276,83,241,230,273,52,285,106,290,209,89,43,185,217,155,75,198,42,76,139,5,247,272,10,20,15,1,278,288,284,229,265,24,38,118,131,200,180,25,151,59,212,296,26,154,157,72,12,64,178,238,100,189,297,57,266,114,144,138,234,224,58,236,215,136,32,237,246,293,240,193,23,213,286,195,182,191,94,228,147,84,258,54,152,73,175,7,3,137,22,259,123,188,158,298,252,254,192,225,108,88,66,251,97,142,56,223,220,274,216,55,168,85,204,169,113,35,16,37,19,82,11,90,119,248,53,167,244,143,260,267,294,110,299,126,41,207,214,231,145,60,21,50,122,120,96,109,291,176,105,199,261,222,128,166,235,29,9,51,208,28,242,46,179,78,34,77,150,226,99]","25","arrowleft","true","15"
"","4577","canvas-keyboard-response","31","135946","0.0-17.0-0.0-0.0","arrowleft","[49,212,116,285,271,50,155,176,130,279,164,18,227,102,238,188,126,178,26,77,118,221,167,94,154,233,17,263,53,281,125,91,74,147,51,228,264,128,3,179,248,206,171,113,173,21,134,34,294,165,20,85,226,240,5,278,55,70,86,4,219,84,299,14,216,200,76,32,124,211,11,15,202,266,199,61,132,100,209,293,280,241,242,143,249,45,273,261,235,286,247,121,24,252,190,120,256,194,232,131,64,220,107,175,0,110,82,193,57,237,295,52,122,144,90,80,267,40,123,103,136,184,243,191,25,36,283,174,119,43,260,92,255,104,277,47,37,2,138,192,71,172,69,189,251,168,48,289,205,68,98,73,225,7,66,111,108,177,272,42,62,146,210,217,29,83,159,198,148,195,254,207,127,197,75,182,63,187,152,204,229,253,16,142,257,282,259,139,87,97,145,224,162,166,117,106,170,284,180,296,89,96,213,133,39,268,109,218,258,9,10,208,161,60,135,99,214,163,114,33,160,275,22,297,185,244,151,186,292,239,30,19,44,250,54,79,12,56,115,46,201,291,262,215,93,196,223,23,67,231,269,35,230,81,129,65,298,149,153,95,169,13,137,183,245,274,78,156,59,290,140,31,28,236,158,58,41,287,1,288,8,265,157,38,141,27,105,270,181,101,6,246,150,222,72,88,276,112,234,203]","20","arrowleft","true","16"
"","1041","canvas-keyboard-response","32","138845","0.0-18.0-0.0-0.0"," ","[217,11,90,96,250,49,170,39,6,240,119,222,174,111,41,284,30,157,131,203,127,186,4,237,18,298,202,16,109,91,235,276,229,185,142,110,126,282,64,87,61,7,140,268,77,195,287,290,79,63,197,46,32,289,270,296,89,247,172,124,14,258,35,75,278,97,275,214,20,193,150,294,209,204,116,192,130,115,267,8,12,184,243,168,145,66,188,199,206,103,248,249,56,141,158,292,226,69,177,238,230,122,274,225,38,132,25,58,81,286,239,236,216,179,261,155,272,22,215,60,17,212,0,227,242,273,211,76,173,178,147,265,15,107,252,21,253,144,279,31,2,183,283,92,73,196,259,146,256,213,121,159,194,13,176,245,149,53,220,59,255,120,153,72,156,57,189,48,29,288,208,164,137,42,163,223,28,219,138,1,205,37,221,78,99,152,55,86,210,84,24,169,233,191,143,182,136,200,105,277,198,224,241,201,112,113,102,251,5,65,95,104,280,254,190,234,45,70,165,162,228,34,160,161,128,106,88,151,68,232,114,100,83,207,26,293,266,125,23,175,171,33,263,295,281,10,260,187,108,27,139,231,181,148,299,9,117,44,123,264,67,271,85,62,180,82,101,43,257,167,129,291,40,134,94,19,54,297,74,36,262,47,135,118,93,154,52,80,98,50,244,166,246,3,269,133,285,51,71,218]","15","arrowleft","","17"
"","632","canvas-keyboard-response","33","141391","0.0-18.1-0.1-0.1"," ","[26,136,216,264,35,99,184,127,0,285,126,270,155,68,92,265,66,121,235,246,73,86,247,229,49,185,88,268,183,22,138,287,116,259,282,77,204,32,55,164,240,84,41,2,297,262,10,98,176,226,156,4,134,194,222,52,151,5,214,112,100,248,274,63,237,67,122,251,170,197,133,290,249,276,119,147,254,30,188,123,46,29,124,48,21,190,45,76,54,125,241,225,258,143,19,145,96,42,8,242,189,25,17,203,56,207,196,289,273,6,299,109,154,58,260,153,65,28,141,50,220,117,91,252,14,61,87,72,15,293,34,191,275,11,261,139,234,150,195,193,36,171,39,33,295,253,93,215,284,57,224,238,294,59,108,27,62,213,292,271,12,266,286,263,267,187,159,85,152,227,142,218,208,269,71,210,245,281,230,38,163,239,221,255,47,244,162,140,233,161,23,202,280,69,256,13,137,115,199,148,95,283,9,83,149,231,182,201,174,75,89,43,3,120,7,94,101,131,177,110,291,80,205,64,128,90,129,82,219,111,135,272,198,114,31,257,102,160,144,24,278,103,104,232,74,81,277,181,236,228,97,200,1,180,192,178,173,169,60,296,107,179,79,70,105,175,206,44,16,223,18,250,211,288,130,209,166,168,40,146,298,37,118,113,186,132,279,217,158,212,20,167,165,157,53,78,51,172,243,106]","15","arrowleft","","17"
"","572","canvas-keyboard-response","34","143849","0.0-18.2-0.2-0.2"," ","[275,77,160,145,215,10,94,237,191,80,41,133,1,281,93,295,91,241,232,146,243,196,290,13,199,294,254,207,68,128,90,220,111,16,212,62,110,37,271,184,250,188,83,48,203,31,274,95,39,126,96,228,267,159,200,157,285,150,87,20,28,182,193,187,25,81,147,86,60,112,23,59,218,121,197,213,284,89,19,104,192,57,17,194,73,143,88,293,70,185,21,50,11,246,5,2,54,85,136,36,206,47,269,298,141,40,292,71,272,172,249,134,178,190,263,175,75,33,105,168,63,8,103,209,260,115,289,231,258,56,198,43,167,49,205,14,109,34,116,120,216,45,18,58,169,99,223,224,6,97,66,38,244,78,287,242,30,92,22,117,123,256,118,155,278,270,53,142,161,151,204,219,179,137,4,122,286,108,181,262,189,140,101,79,27,259,176,211,165,162,82,0,177,202,138,67,100,26,44,296,29,233,76,279,291,201,32,252,297,174,24,61,102,3,230,84,131,69,46,268,265,214,72,163,255,114,149,154,257,239,132,280,42,288,261,253,35,127,299,210,144,227,139,282,106,238,247,156,12,226,124,235,113,153,164,65,240,221,208,277,264,229,273,234,9,283,195,217,173,135,248,51,276,74,166,55,222,152,64,158,125,225,183,186,245,148,107,130,129,251,15,52,7,98,180,170,119,236,171,266]","15","arrowleft","","17"
"","1818","canvas-keyboard-response","35","147990","0.0-18.3-0.3-0.3","arrowright","[110,89,165,256,36,298,97,150,141,209,223,205,132,39,160,177,264,41,63,16,76,5,275,69,226,212,238,280,282,154,240,230,157,151,186,138,25,111,287,18,117,2,225,3,62,274,77,200,58,208,211,179,229,113,70,80,100,65,42,281,23,78,57,126,246,224,278,259,234,74,261,50,10,83,66,9,88,189,219,112,156,148,271,22,252,199,228,60,217,161,174,163,123,290,28,277,17,99,120,71,210,147,266,105,59,233,19,297,291,293,295,40,248,247,55,284,81,140,106,215,194,64,67,144,52,47,107,51,68,93,206,296,8,131,242,114,263,185,53,136,108,143,255,237,11,35,283,146,37,191,276,134,273,260,91,20,176,171,26,128,119,153,145,201,236,220,90,164,0,130,197,204,72,270,190,294,245,180,84,98,159,267,214,7,168,262,166,188,4,155,218,198,109,184,116,285,32,269,175,265,33,95,30,244,178,286,158,54,162,103,56,292,121,251,21,92,31,288,139,75,272,24,192,299,122,203,96,101,129,257,193,86,43,48,231,183,1,181,250,45,12,38,49,61,82,221,243,79,34,172,207,118,133,289,104,232,149,137,73,268,249,46,6,102,235,87,187,196,279,167,85,124,254,125,27,127,14,94,182,173,142,170,195,213,241,258,239,115,227,169,216,152,29,202,13,15,44,135,222,253]","15","arrowleft","false","17"
"","1936","canvas-keyboard-response","36","151993","0.0-19.0-0.0-0.0"," ","[141,285,200,20,9,32,207,134,216,74,239,51,267,299,168,206,137,202,191,101,263,226,43,201,296,228,76,95,53,182,86,69,183,130,184,249,0,156,199,272,240,99,233,178,225,271,235,223,192,59,64,112,80,269,57,264,49,72,88,3,257,187,237,31,111,160,151,92,61,292,81,104,173,278,234,44,33,297,161,46,190,118,122,248,245,87,258,186,22,18,275,167,251,189,203,78,179,26,227,242,39,48,114,136,129,229,79,6,261,247,265,11,150,36,277,94,177,23,219,153,243,196,85,13,162,58,215,100,279,1,147,7,108,209,176,135,83,5,117,113,127,28,73,63,66,169,185,259,174,288,158,152,244,145,42,25,281,128,103,282,115,71,54,212,140,27,123,24,52,194,205,30,47,96,110,148,294,241,10,132,283,193,197,119,121,50,131,280,255,34,213,139,35,56,98,17,40,142,295,21,231,15,75,164,68,45,221,116,262,70,260,172,2,250,180,55,290,284,181,163,38,293,93,146,4,217,12,19,232,91,230,289,254,266,166,102,62,222,82,208,246,154,16,198,210,291,238,170,149,188,274,97,138,218,41,77,287,286,124,143,109,276,106,107,256,175,214,125,268,120,224,126,37,273,159,157,204,253,90,195,270,236,60,105,89,133,67,171,8,298,165,29,65,155,84,14,252,220,211,144]","10","arrowleft","","18"
"","968","canvas-keyboard-response","37","154993","0.0-19.1-0.1-0.1"," ","[267,163,243,257,73,38,60,101,77,70,139,31,261,18,274,136,232,5,21,182,53,48,58,235,240,27,166,223,263,81,233,68,74,28,183,140,42,176,294,76,2,260,9,8,290,149,112,252,66,109,75,55,192,57,158,285,122,80,150,219,227,47,35,297,231,175,146,201,141,120,167,105,69,64,51,165,147,138,273,39,113,221,184,157,79,177,4,229,181,119,125,265,142,154,217,188,3,10,241,1,291,98,82,131,22,93,286,43,256,245,102,287,172,107,67,173,213,115,14,126,95,13,110,195,145,83,198,174,103,298,91,289,0,299,187,155,253,283,282,124,44,207,179,63,161,262,288,26,7,205,160,71,190,258,264,121,87,296,88,266,72,108,32,193,251,278,132,171,239,40,169,211,272,49,86,276,148,84,191,279,118,284,220,224,215,237,222,56,128,114,293,153,246,238,210,269,152,275,30,200,61,199,212,99,62,104,249,15,89,11,218,25,96,133,206,236,143,16,116,255,65,151,228,156,178,24,254,247,189,50,230,203,292,295,196,54,78,100,127,162,208,144,90,34,214,280,259,19,277,92,45,185,29,242,59,134,33,106,202,197,248,52,216,180,37,135,130,46,234,281,204,111,225,186,271,194,20,159,41,250,117,97,137,164,23,226,12,123,94,36,17,209,170,85,168,270,268,129,244,6]","10","arrowleft","","18"
"","1465","canvas-keyboard-response","38","158879","0.0-19.2-0.2-0.2","arrowleft","[0,148,73,33,283,179,34,279,230,60,286,135,263,21,185,15,24,82,25,138,4,37,62,92,233,236,12,218,294,90,9,213,171,234,105,36,112,242,117,269,265,75,97,211,227,176,153,256,140,67,258,280,173,272,68,169,66,63,261,222,23,108,84,209,2,281,79,65,54,240,30,149,223,288,257,95,231,276,118,104,150,228,189,139,102,126,124,199,244,141,270,259,197,253,214,40,151,267,212,1,10,14,221,196,93,122,220,190,248,128,297,277,43,87,101,123,18,57,91,237,71,238,107,229,16,38,59,178,177,142,50,39,182,217,166,99,77,29,5,45,85,130,20,58,202,246,285,6,188,206,161,293,13,203,278,69,187,247,198,49,19,243,143,144,299,28,289,156,116,32,76,22,167,146,249,27,239,147,44,131,80,159,64,245,268,127,110,119,35,155,275,152,94,168,74,52,207,162,47,8,172,136,100,120,160,264,296,98,113,51,215,61,157,224,205,17,133,226,158,216,174,109,260,183,193,83,204,129,78,195,298,115,255,145,89,241,106,219,42,181,210,56,134,180,232,251,121,274,3,201,53,192,72,271,165,252,31,186,154,7,194,164,235,273,11,191,26,103,96,137,282,284,125,250,175,114,132,184,55,287,266,208,254,291,170,81,290,111,46,70,262,86,48,163,225,292,295,88,200,41]","10","arrowleft","true","18"
"","3964","canvas-keyboard-response","39","165054","0.0-20.0-0.0-0.0","arrowleft","[285,33,294,199,224,79,251,74,104,94,223,65,255,291,216,265,1,45,91,120,56,267,243,245,266,232,62,28,215,132,0,121,136,290,32,195,43,48,111,49,142,213,254,105,229,273,151,27,275,85,101,209,110,61,118,192,107,44,247,188,90,2,134,244,248,163,239,271,127,21,29,57,233,17,146,117,130,221,159,169,287,282,218,46,292,176,53,220,217,193,299,41,201,140,297,277,92,86,154,205,160,186,38,70,274,204,161,10,155,23,279,210,47,238,256,298,189,173,42,185,108,123,289,144,288,22,270,84,106,16,191,225,25,9,78,138,67,147,26,5,175,168,150,231,54,76,64,6,7,99,234,259,18,214,212,222,172,35,219,14,96,182,246,51,197,60,153,171,170,11,112,24,50,174,278,124,263,63,116,40,66,31,131,264,272,77,250,295,145,242,202,241,114,249,13,206,228,36,88,281,177,286,180,148,208,93,103,12,157,113,3,253,59,71,139,34,196,230,143,141,296,179,102,194,128,166,200,55,125,58,261,198,276,37,68,75,109,184,262,80,52,268,240,81,83,115,19,72,162,257,269,293,89,252,260,203,187,39,164,158,211,258,98,178,183,97,126,73,87,119,133,284,69,135,15,280,190,237,20,8,235,283,100,167,149,226,156,82,122,181,95,207,30,152,137,129,4,165,236,227]","5","arrowright","false","19"
