"view_history","rt","trial_type","trial_index","time_elapsed","internal_node_id","response","nodesOrdering","cliqueSize","correctResponse","correctnessOfResponse","presentationNumber"
"[{""page_index"":0,""viewing_time"":1252}]","1252","instructions","0","1252","0.0-0.0","","","","","",""
"","2252","canvas-keyboard-response","1","5471","0.0-1.0-0.0-0.0","arrowright","[115,102,110,208,286,168,17,52,123,176,288,277,10,56,213,249,174,106,101,259,242,112,54,184,70,94,23,7,233,160,66,93,274,117,235,154,240,220,125,57,282,225,159,120,35,118,131,197,149,90,163,193,171,146,85,43,189,87,281,194,13,41,289,50,46,283,147,216,114,25,2,204,144,9,18,29,293,219,36,77,81,61,14,1,280,49,248,116,47,239,3,290,268,88,178,299,32,218,165,133,250,79,214,256,180,175,92,137,206,136,244,135,71,257,243,68,278,169,196,59,82,69,279,139,198,62,200,182,224,187,167,58,37,276,75,98,210,237,232,253,261,222,258,11,186,264,209,201,26,16,227,122,143,296,270,121,285,104,109,4,107,21,140,267,91,74,183,142,273,221,150,223,73,76,105,205,292,103,265,124,181,162,100,19,84,45,31,192,245,151,48,12,254,97,211,173,129,44,83,141,127,20,199,252,185,226,207,113,166,30,95,228,51,89,269,134,99,212,246,158,42,287,156,275,33,295,153,297,203,231,238,215,40,65,241,5,28,67,15,27,284,78,217,96,155,138,262,298,157,119,291,111,0,272,255,22,72,260,145,294,179,148,161,53,164,177,24,64,190,132,230,251,38,170,86,34,126,195,55,128,229,80,202,191,188,234,39,172,271,8,130,266,247,60,108,6,63,152,263,236]","100","arrowright","true","0"
"","4023","canvas-keyboard-response","2","11402","0.0-2.0-0.0-0.0","arrowleft","[71,269,137,83,264,292,294,85,162,295,252,98,115,130,54,15,131,220,231,282,286,41,102,146,201,233,96,222,119,263,89,100,165,27,36,180,230,11,52,232,291,254,34,226,120,256,59,112,274,124,285,260,135,118,110,293,215,190,117,12,6,38,42,262,143,283,265,128,35,155,288,161,75,66,123,76,290,10,43,107,247,105,266,84,141,258,92,86,109,172,40,210,206,95,157,133,213,17,221,3,49,168,181,25,195,28,24,158,139,277,225,140,111,287,199,125,237,183,13,259,189,152,238,276,39,126,296,127,249,244,142,7,16,57,187,103,205,19,48,218,31,284,64,212,194,191,177,196,200,279,32,122,154,0,33,113,30,121,171,116,5,182,8,104,245,23,176,18,149,163,211,251,129,164,29,228,79,216,14,47,242,271,179,193,20,70,82,267,21,90,72,68,167,37,255,151,56,227,280,273,147,234,166,224,145,208,60,94,4,26,197,173,58,281,1,22,270,192,170,243,198,80,108,87,91,214,69,101,248,55,156,138,289,93,150,65,175,46,257,45,268,229,261,160,73,50,106,278,77,97,297,2,81,136,239,51,241,184,186,209,240,178,159,174,204,74,223,67,188,236,207,202,88,185,134,148,144,63,217,299,99,9,219,298,203,272,253,250,235,153,44,53,169,246,132,62,275,61,114,78]","95","arrowleft","true","1"
"","4471","canvas-keyboard-response","3","17744","0.0-3.0-0.0-0.0","arrowleft","[93,234,220,33,163,216,113,125,20,168,237,229,247,37,86,109,74,222,44,88,102,18,159,43,169,194,27,4,253,177,64,235,197,172,187,236,45,192,200,38,124,188,77,69,155,240,137,210,224,28,288,242,246,23,154,292,96,144,290,112,195,40,91,193,217,117,174,281,60,72,181,81,119,191,32,294,126,183,241,175,248,24,156,41,90,233,6,266,85,98,82,48,87,211,116,83,279,114,269,299,231,261,135,227,209,255,127,165,106,70,268,89,297,287,206,198,263,150,278,245,252,201,176,56,5,16,132,110,65,272,14,120,26,101,291,173,239,243,36,42,123,283,57,148,21,100,212,25,226,22,259,180,282,170,47,157,29,66,94,162,76,130,10,164,267,238,257,190,251,151,189,166,153,167,35,75,225,258,293,270,213,202,39,171,61,79,2,31,13,46,62,215,277,296,145,3,262,143,203,68,139,121,178,95,141,17,53,286,280,184,52,275,19,0,207,71,80,146,208,134,196,84,289,179,133,254,15,230,250,54,186,182,271,108,92,204,105,199,34,244,265,138,1,185,256,118,99,285,103,111,298,232,59,128,7,161,97,136,11,221,142,49,50,30,73,218,129,78,158,273,223,249,104,276,260,12,219,264,63,115,9,214,58,228,284,122,67,140,131,51,295,152,107,147,8,55,274,160,149,205]","90","arrowleft","true","2"
"","3620","canvas-keyboard-response","4","23246","0.0-4.0-0.0-0.0"," ","[118,268,87,67,259,245,33,90,142,152,250,69,233,234,120,15,49,294,161,156,270,44,108,38,105,261,23,8,130,145,122,200,126,202,288,223,62,7,267,184,218,264,168,224,210,284,279,282,182,281,95,75,228,60,297,237,299,124,110,278,48,230,51,253,36,286,65,101,53,31,194,248,40,85,34,83,289,22,66,249,46,11,119,42,207,197,265,109,12,154,176,35,159,81,93,215,135,206,214,179,147,236,47,45,30,216,117,272,178,73,28,273,79,127,64,128,26,39,17,9,252,201,153,165,217,173,231,58,220,255,187,92,172,84,251,41,170,125,212,232,262,180,150,20,74,219,59,160,285,137,171,115,199,114,5,98,208,242,111,221,181,244,139,157,226,291,209,229,290,123,112,276,274,6,205,257,235,4,186,162,18,43,155,10,151,271,129,57,32,213,256,298,19,188,86,260,275,140,80,16,0,225,158,99,241,94,141,203,183,295,116,227,195,185,163,277,193,164,24,175,55,25,1,82,149,50,97,263,103,243,72,287,21,52,106,61,3,27,134,104,238,247,100,196,133,169,144,121,269,13,246,143,54,91,189,296,89,56,37,166,136,240,29,211,258,148,70,254,174,293,71,190,239,132,131,2,113,77,88,177,280,167,204,191,68,138,283,198,222,96,292,78,146,76,192,14,102,63,266,107]","85","arrowright","","3"
"","2359","canvas-keyboard-response","5","27512","0.0-4.1-0.1-0.1","arrowright","[5,14,210,49,286,157,88,249,212,232,102,80,179,181,177,175,23,216,57,139,183,211,191,34,132,106,31,144,104,178,136,188,65,87,135,225,44,195,265,231,224,110,131,227,176,122,137,238,147,196,21,112,156,214,84,101,73,230,218,198,120,93,263,6,220,164,295,121,67,151,143,12,4,70,114,274,251,169,60,273,25,64,298,234,149,294,16,146,255,22,98,74,108,90,89,158,180,201,260,19,161,69,46,184,291,94,37,261,285,264,50,56,103,187,7,134,163,116,36,209,113,193,250,78,47,197,242,28,30,282,153,283,246,266,170,276,189,61,162,199,55,221,194,256,182,293,219,299,75,267,86,119,40,166,200,76,229,243,275,167,205,203,42,128,91,222,257,127,129,280,18,269,71,277,66,204,11,35,154,111,3,39,83,160,99,150,43,152,68,185,252,241,107,2,235,117,254,48,45,296,259,287,148,186,237,58,1,95,79,172,281,288,109,0,159,217,97,207,77,105,82,202,59,290,100,190,17,52,226,245,20,145,171,63,236,51,126,29,272,284,81,155,54,268,38,297,248,239,192,8,41,13,208,62,24,240,130,206,213,292,142,173,278,10,262,133,174,125,33,124,215,253,228,258,244,123,115,27,32,118,140,279,223,9,96,165,141,289,233,15,247,85,53,270,138,72,26,92,271,168]","85","arrowright","true","3"
"","2007","canvas-keyboard-response","6","31391","0.0-5.0-0.0-0.0"," ","[32,267,248,79,97,56,22,38,222,191,21,225,170,279,284,259,122,2,102,133,250,124,183,19,23,295,101,30,243,47,61,184,209,81,70,177,149,39,298,171,135,287,128,195,282,213,286,290,266,238,131,126,208,281,228,12,274,89,296,75,283,159,74,20,67,212,190,273,168,271,117,106,105,14,84,221,192,121,138,59,160,13,0,264,185,152,66,174,158,140,280,28,211,60,15,246,77,27,42,18,55,288,125,25,236,201,197,120,109,40,53,147,199,5,148,297,193,85,230,203,94,219,153,110,92,69,62,196,226,169,253,255,156,200,143,130,146,235,24,155,52,218,233,1,234,119,35,293,181,270,57,249,180,104,4,294,299,144,44,276,223,210,145,247,58,80,277,176,46,36,86,96,217,278,239,205,129,157,154,93,29,37,8,206,64,220,268,123,204,229,99,194,17,232,289,257,251,182,98,111,65,173,163,33,6,118,114,198,7,83,108,165,291,48,112,207,215,237,240,54,41,262,161,269,95,88,68,224,100,72,82,43,141,258,50,216,172,260,261,115,71,16,91,76,103,178,245,139,127,214,242,87,136,254,63,292,202,90,187,107,167,3,151,113,241,26,150,186,73,34,166,265,10,137,272,227,175,244,132,78,231,49,263,116,179,45,188,9,162,31,51,256,142,11,134,285,189,275,164,252]","80","arrowleft","","4"
"","1011","canvas-keyboard-response","7","34319","0.0-5.1-0.1-0.1"," ","[129,251,27,71,25,115,89,76,135,128,203,24,224,65,293,105,200,292,85,262,137,29,265,8,23,212,26,237,298,136,278,41,211,134,180,19,158,226,11,231,228,157,192,167,225,258,256,182,260,3,272,107,266,215,6,127,241,61,114,179,274,250,9,161,46,98,169,56,246,108,195,238,197,40,60,72,12,116,44,54,269,213,189,164,21,229,47,59,201,18,119,63,219,97,273,198,48,106,174,177,276,222,264,178,286,15,181,74,282,100,190,236,284,81,45,271,165,141,104,84,156,280,289,277,80,140,144,173,193,267,110,279,1,188,199,153,297,121,295,55,287,57,172,103,92,151,147,294,234,196,93,150,75,49,218,31,20,79,139,283,184,288,210,88,143,58,78,53,208,186,77,87,111,34,142,253,285,220,112,290,16,268,257,133,33,247,217,17,235,124,73,259,244,261,62,50,4,175,66,205,263,36,125,216,13,86,70,170,138,242,39,160,154,52,243,233,42,209,183,118,230,145,245,130,68,166,10,252,254,94,148,38,191,132,99,207,32,171,0,291,214,296,162,185,37,202,35,117,168,69,102,227,249,28,204,82,14,131,239,240,2,91,152,281,90,176,163,113,95,187,155,223,232,5,101,51,83,120,22,149,270,96,159,299,64,123,43,7,275,109,126,248,30,194,67,146,122,255,206,221]","80","arrowleft","","4"
"","1132","canvas-keyboard-response","8","37409","0.0-5.2-0.2-0.2"," ","[157,68,297,23,43,20,79,173,166,66,177,158,136,193,184,252,261,165,167,62,74,222,231,198,135,142,9,253,137,83,289,91,226,288,67,93,18,8,34,219,186,7,160,211,169,266,129,119,127,207,267,78,37,164,244,0,181,156,256,46,36,132,220,108,154,75,276,258,54,278,64,70,50,144,4,111,2,123,206,125,140,55,224,141,209,148,250,99,233,114,39,56,58,238,249,161,69,42,243,11,151,40,105,33,247,190,153,290,24,90,57,273,251,205,19,208,82,38,221,47,48,275,171,3,178,59,200,274,175,71,163,263,295,134,255,116,84,112,272,203,128,228,77,45,282,239,182,214,174,283,122,202,248,268,14,101,227,29,81,242,223,216,210,5,152,28,147,229,194,60,80,72,277,96,1,106,225,138,13,259,230,16,217,6,292,260,146,189,280,65,218,10,294,51,159,236,124,262,31,27,183,126,100,257,201,185,53,118,102,113,271,199,63,197,145,168,241,17,293,270,246,97,155,298,191,73,187,291,150,286,61,87,25,98,49,121,88,149,254,94,265,240,195,237,86,109,41,110,89,133,139,131,204,22,15,103,117,215,234,213,180,212,26,12,232,107,281,92,172,188,192,196,76,170,162,264,285,104,287,44,21,284,52,235,32,95,299,269,120,296,35,30,179,279,143,115,245,85,176,130]","80","arrowleft","","4"
"","700","canvas-keyboard-response","9","40037","0.0-5.3-0.3-0.3","arrowleft","[43,188,58,155,260,273,87,295,145,67,175,80,174,135,34,103,150,140,45,253,82,203,104,139,248,223,28,0,193,277,92,246,194,209,233,215,46,264,55,74,228,119,208,249,195,225,123,127,110,113,142,35,212,85,14,252,1,65,180,256,156,9,186,288,105,163,266,13,270,42,197,25,298,255,12,114,8,265,153,49,97,22,106,148,201,40,90,263,258,76,60,128,134,6,39,98,48,211,177,190,126,125,179,218,26,226,57,222,268,5,241,30,236,176,207,230,182,213,276,293,192,274,18,251,51,31,63,79,165,282,289,78,120,24,171,73,3,33,68,286,16,131,275,133,17,137,152,185,283,281,183,210,292,297,178,235,221,52,279,149,61,36,247,77,59,237,154,219,262,259,272,20,21,94,132,243,117,238,44,169,89,108,206,88,4,200,257,122,164,136,254,240,287,84,220,239,32,143,11,107,141,146,70,53,15,124,234,267,111,244,95,284,269,27,278,250,224,170,75,242,291,181,191,216,166,172,161,205,162,71,196,66,81,130,38,72,189,50,160,217,64,280,101,7,47,187,227,62,112,158,271,138,198,56,151,100,173,121,93,231,129,245,296,83,102,159,115,2,91,168,116,229,157,19,86,99,118,261,37,199,96,167,109,202,232,204,41,147,214,184,69,299,294,54,23,144,10,29,290,285]","80","arrowleft","true","4"
"","6580","canvas-keyboard-response","10","48577","0.0-6.0-0.0-0.0"," ","[42,22,190,206,48,41,105,55,12,204,130,136,117,239,230,58,138,278,276,100,194,153,146,274,59,293,97,99,31,86,49,134,203,32,93,114,252,295,98,235,131,275,137,128,259,282,169,109,180,158,14,265,196,159,181,179,238,62,269,139,87,284,89,135,299,263,1,287,21,106,281,285,205,57,199,122,102,107,288,133,178,217,20,218,154,38,163,74,298,214,160,222,241,96,175,234,292,33,198,16,251,80,83,112,166,27,290,244,256,115,28,19,108,195,267,236,297,273,111,125,6,152,277,10,121,144,84,148,0,13,47,123,261,44,23,35,147,221,245,149,193,172,39,36,79,229,29,140,186,208,240,46,174,63,242,165,88,104,141,182,45,286,188,171,157,25,226,228,268,30,9,132,219,187,8,283,216,26,85,255,24,77,124,5,66,56,225,60,64,110,4,70,280,260,91,103,184,76,249,43,200,52,177,151,253,209,3,170,101,155,126,116,68,192,53,210,201,185,231,232,202,246,143,237,294,78,189,197,142,258,69,34,191,15,145,248,176,61,81,92,183,224,262,18,94,291,118,220,65,272,17,113,54,213,73,264,37,75,247,40,257,211,270,254,67,212,161,215,167,289,7,150,95,243,296,90,233,162,223,120,227,168,71,119,82,173,207,11,156,271,50,72,51,2,266,250,129,164,279,127]","75","arrowright","","5"
"","1767","canvas-keyboard-response","11","52237","0.0-6.1-0.1-0.1"," ","[23,217,270,234,15,25,291,276,208,210,91,0,10,207,106,79,34,26,59,256,125,242,274,55,120,165,209,115,18,241,232,220,224,278,14,240,189,160,237,12,61,227,65,236,60,150,90,140,77,101,29,267,286,230,135,17,50,40,163,44,174,108,78,39,215,105,81,145,21,257,200,4,162,177,247,110,204,243,87,88,95,104,68,213,279,185,299,188,282,63,53,51,182,281,8,109,71,268,52,239,80,113,9,179,249,99,250,221,292,288,119,195,212,198,280,290,7,157,298,238,117,259,146,69,248,31,192,107,122,187,137,3,161,244,194,285,136,205,218,19,167,173,49,102,233,131,100,168,85,199,5,262,191,45,73,56,147,164,142,226,152,114,169,153,46,193,111,235,287,76,186,251,176,277,58,222,272,294,283,183,28,252,148,263,2,203,171,98,94,206,214,156,70,62,33,297,202,253,24,295,196,54,172,154,289,141,43,83,6,32,258,36,155,128,190,116,38,75,130,170,41,271,180,134,93,159,275,260,219,246,82,1,67,261,92,103,20,264,223,30,64,129,181,126,269,84,66,139,48,97,175,211,197,127,89,96,184,201,86,245,22,118,16,166,254,27,265,42,144,143,178,13,151,284,229,74,138,255,112,231,216,266,124,149,37,228,47,72,11,121,293,123,57,132,35,225,296,158,273,133]","75","arrowright","","5"
"","1640","canvas-keyboard-response","12","55798","0.0-6.2-0.2-0.2","arrowright","[199,156,30,111,200,174,58,127,267,220,11,4,252,218,290,135,243,225,61,208,205,97,233,124,1,196,157,118,224,263,46,283,160,136,48,162,167,268,140,120,172,294,6,50,245,241,197,76,210,151,104,94,126,79,234,189,192,37,295,242,88,57,107,183,198,119,137,132,185,181,250,266,134,121,73,13,171,26,231,141,28,16,17,77,106,285,53,292,194,246,264,291,287,22,229,96,123,133,180,155,71,281,212,153,230,72,67,143,54,105,213,164,280,277,112,113,187,256,279,3,90,45,286,170,95,20,227,63,78,93,190,255,191,115,214,138,130,288,274,69,87,89,91,217,33,278,249,19,273,23,276,34,299,149,244,269,14,178,18,239,186,31,62,293,221,154,92,60,219,59,146,201,260,122,41,193,272,9,8,184,43,117,215,237,51,108,211,265,161,56,206,24,165,125,177,204,128,55,195,98,271,10,152,49,228,223,131,168,109,25,216,38,110,261,203,259,82,296,0,70,101,102,99,42,166,297,175,142,270,32,116,182,209,35,148,232,52,258,7,66,284,254,262,247,139,248,15,238,289,40,44,84,158,81,36,298,179,129,169,47,68,275,235,282,12,103,75,176,65,83,222,114,85,240,253,39,207,29,159,27,86,236,21,251,173,80,150,163,147,144,202,188,257,2,100,74,5,226,64,145]","75","arrowright","true","5"
"","2232","canvas-keyboard-response","13","59944","0.0-7.0-0.0-0.0"," ","[184,273,278,21,256,259,187,253,77,194,192,82,183,275,170,195,129,7,244,152,19,81,268,138,131,23,209,80,226,230,237,121,103,245,90,1,293,291,284,173,190,288,95,148,142,143,105,295,282,119,83,116,248,49,240,188,15,127,126,63,86,299,182,37,257,136,150,22,225,57,133,155,87,246,25,213,258,265,290,262,229,31,139,207,74,30,128,35,217,205,178,266,220,247,59,47,24,38,16,252,157,3,60,62,214,26,118,34,40,12,130,0,279,110,146,61,285,228,13,151,28,162,154,264,145,70,65,141,79,132,263,56,78,6,20,242,27,73,159,111,277,235,250,93,10,294,97,175,243,272,224,289,241,123,91,219,42,107,125,161,45,11,135,109,144,200,54,221,204,48,167,2,236,189,232,180,50,75,134,112,55,292,52,267,269,297,14,186,210,53,46,58,100,283,101,296,270,85,201,147,227,260,69,156,174,104,89,218,98,223,287,202,43,168,249,124,67,298,99,274,166,185,33,163,29,44,88,181,113,286,106,76,84,160,196,233,4,177,231,8,41,281,271,153,36,215,165,122,276,66,71,179,92,115,169,216,64,108,96,94,51,280,211,172,251,18,32,238,164,39,212,176,171,198,191,261,120,206,17,234,68,114,5,9,72,255,203,140,117,193,158,222,199,197,239,208,254,137,149,102]","70","arrowright","","6"
"","1640","canvas-keyboard-response","14","63487","0.0-7.1-0.1-0.1","arrowright","[264,249,95,120,168,89,171,78,113,294,293,213,80,69,205,88,265,56,153,224,261,297,150,198,286,71,207,145,48,128,174,196,105,169,230,8,275,260,63,134,299,50,139,279,234,284,2,126,199,92,238,141,7,34,10,39,290,173,143,201,85,151,259,191,283,218,277,16,100,148,195,197,149,156,121,131,84,64,180,21,267,111,104,6,170,186,136,203,18,33,271,252,36,245,296,15,108,226,225,181,163,123,99,282,29,60,158,235,41,67,216,241,280,142,103,244,172,77,90,75,182,70,202,97,220,0,287,276,140,185,194,46,206,37,81,129,25,58,66,42,165,164,161,116,20,54,9,176,122,254,43,1,188,200,183,30,27,160,155,242,291,217,256,250,274,179,38,273,17,221,53,132,117,72,79,215,44,223,243,102,177,214,135,211,295,40,246,262,51,125,212,91,227,167,13,269,31,146,210,193,253,133,229,231,109,152,189,73,130,178,263,98,101,138,47,107,94,184,190,162,147,292,228,289,62,76,110,65,239,93,112,12,118,52,157,45,272,74,281,208,22,23,257,192,236,96,240,219,270,3,82,233,87,298,127,49,222,119,26,19,35,187,268,24,59,28,232,144,247,137,159,86,106,55,248,124,175,11,278,251,14,68,57,255,32,83,285,209,288,61,115,166,154,258,204,4,114,5,237,266]","70","arrowright","true","6"
"","1765","canvas-keyboard-response","15","67178","0.0-8.0-0.0-0.0"," ","[36,205,111,97,225,219,234,128,113,6,271,196,4,110,184,33,75,255,58,201,35,299,68,167,210,17,55,38,88,37,137,292,136,262,152,124,209,278,53,244,21,116,156,143,89,117,227,264,239,90,259,60,288,39,177,273,251,57,252,123,62,190,25,180,40,65,31,207,220,222,1,56,84,29,285,182,176,275,98,189,208,169,216,107,247,51,15,132,235,187,139,270,232,54,80,280,191,238,0,46,231,241,134,268,49,269,293,104,72,217,82,181,242,193,7,188,105,3,263,115,119,11,213,69,47,103,14,274,129,77,45,114,131,229,165,157,122,125,121,248,150,200,212,290,9,287,295,175,171,178,48,63,138,100,42,151,284,253,261,148,245,289,28,85,118,43,170,186,112,183,272,158,86,30,230,23,179,267,12,24,277,50,260,194,197,214,298,243,172,279,130,155,266,70,44,59,168,8,154,198,159,140,16,281,166,144,296,135,203,283,145,258,73,297,108,76,81,32,106,52,185,246,78,153,226,71,66,133,195,240,79,120,162,228,160,93,95,142,19,294,236,249,61,96,265,141,126,237,74,257,92,26,211,41,174,206,215,146,282,250,102,13,199,94,218,149,202,127,147,67,109,83,18,221,173,224,256,254,291,161,64,27,2,164,101,87,276,91,286,223,10,163,233,20,192,99,5,22,34,204]","65","arrowright","","7"
"","1081","canvas-keyboard-response","16","70235","0.0-8.1-0.1-0.1"," ","[125,293,78,113,264,171,105,210,155,277,175,88,58,123,209,272,271,33,23,6,131,159,268,132,84,90,54,250,249,4,119,203,269,191,270,193,226,152,192,95,97,198,172,251,289,106,56,9,217,150,109,49,110,290,0,215,21,246,167,187,230,184,18,25,163,72,45,65,255,100,224,73,231,118,148,299,281,3,22,140,103,41,253,134,173,222,296,279,178,129,67,28,36,111,37,115,196,284,211,7,96,91,46,199,174,219,2,135,162,99,218,17,291,197,223,136,158,137,43,156,238,292,239,280,32,27,89,35,225,213,20,126,12,165,212,157,207,75,286,248,237,147,108,283,205,66,259,240,252,16,263,294,40,87,243,81,70,298,102,64,194,285,112,71,149,170,177,282,8,42,160,216,161,265,266,24,154,82,127,153,124,128,169,262,273,80,52,51,68,234,104,107,201,114,63,233,76,297,247,13,48,228,85,295,98,166,254,74,101,77,200,15,185,288,257,44,121,60,276,62,122,69,130,241,117,274,256,189,242,235,168,93,260,57,86,47,181,229,176,120,139,190,83,214,204,1,133,227,38,79,61,138,206,143,232,53,19,144,55,245,146,116,278,10,287,14,275,30,258,267,11,179,94,39,188,142,202,145,221,195,164,29,182,50,186,244,208,5,141,236,31,220,151,59,180,183,92,261,26,34]","65","arrowright","","7"
"","2079","canvas-keyboard-response","17","74263","0.0-8.2-0.2-0.2","arrowright","[118,169,155,43,268,177,132,178,256,279,74,28,176,14,160,83,89,282,17,105,181,228,140,198,46,202,221,192,54,257,61,34,164,162,109,246,50,199,274,139,27,163,131,94,171,296,25,249,185,47,275,276,142,166,125,259,167,101,119,289,190,13,19,68,187,49,66,90,69,124,290,285,72,88,229,112,210,65,38,231,96,235,41,37,205,39,236,224,223,120,36,232,233,247,214,180,78,107,255,111,217,173,292,129,264,168,272,265,248,287,211,121,206,291,225,16,242,213,3,8,200,7,219,150,148,1,85,260,127,70,159,10,284,195,209,144,77,91,138,262,240,261,104,220,110,254,152,172,81,191,100,165,184,227,71,95,193,243,252,73,15,239,55,93,123,87,258,52,128,6,75,115,204,20,149,102,63,108,143,267,283,137,271,186,147,216,215,208,170,122,0,82,194,182,29,45,269,288,253,23,212,151,62,263,9,298,24,79,133,103,146,297,40,156,266,51,114,183,278,134,76,135,157,226,98,293,295,222,11,44,250,99,18,294,80,67,207,117,203,64,154,116,299,277,106,57,175,281,141,241,56,197,251,280,270,60,26,84,130,22,35,158,230,113,5,97,218,161,201,136,58,179,32,86,174,126,244,48,2,31,4,42,286,196,237,189,92,53,188,153,245,238,33,273,30,145,12,21,234,59]","65","arrowright","true","7"
"","1627","canvas-keyboard-response","18","77761","0.0-9.0-0.0-0.0"," ","[173,1,216,269,264,213,68,109,81,14,116,203,293,272,271,118,211,45,253,6,126,87,67,42,97,217,10,278,114,179,70,237,138,235,245,120,43,0,100,181,298,72,89,294,22,2,227,54,80,266,25,182,57,185,257,156,166,73,48,16,39,154,15,52,75,103,268,261,152,191,4,47,122,240,295,91,64,124,121,283,111,231,291,20,113,146,242,7,155,276,145,168,250,202,18,132,192,30,148,241,219,142,115,195,86,65,50,112,284,210,262,74,125,105,37,285,290,11,199,243,201,280,53,21,184,273,55,98,110,157,214,265,140,38,175,274,247,215,208,108,246,36,44,226,150,207,205,233,3,63,287,204,197,289,258,174,32,83,230,224,206,147,94,19,277,270,286,40,92,223,159,221,139,41,236,106,282,33,220,12,133,228,151,186,46,90,263,244,171,84,172,24,127,117,131,296,279,225,209,56,13,164,169,59,27,188,5,144,78,178,288,60,137,130,8,232,212,183,248,281,119,176,256,187,153,141,238,17,177,35,170,96,255,76,234,251,193,51,194,69,71,134,61,254,162,267,161,259,26,128,85,23,260,189,190,29,297,49,275,299,198,196,239,66,107,143,99,136,101,229,88,252,292,163,218,28,149,165,180,167,104,95,158,79,222,58,31,249,93,123,129,200,102,135,82,77,34,9,62,160]","60","arrowright","","8"
"","992","canvas-keyboard-response","19","80651","0.0-9.1-0.1-0.1"," ","[9,73,39,283,133,100,130,229,121,210,31,232,222,2,58,268,151,293,49,56,266,13,299,220,89,149,5,257,23,243,134,43,138,27,79,170,12,0,125,281,221,269,163,204,242,228,168,233,241,122,53,29,55,298,66,297,24,265,82,141,230,188,132,263,209,10,199,287,270,226,28,171,158,67,143,235,239,88,256,215,64,260,57,164,123,135,197,7,85,208,118,173,75,201,192,71,124,240,172,245,162,32,11,107,191,198,147,186,21,34,251,160,218,264,292,38,94,50,214,179,102,237,227,273,276,181,259,144,14,63,97,206,48,68,61,69,106,212,177,99,193,236,182,47,202,52,111,195,284,74,155,289,248,77,87,65,286,93,109,76,294,46,6,8,110,70,153,296,200,139,217,189,167,194,108,187,72,161,246,247,282,250,15,96,262,91,203,104,78,115,255,152,18,157,33,126,45,277,238,225,19,219,128,95,37,165,175,81,129,17,295,150,54,275,288,166,258,136,101,280,62,154,185,1,146,80,84,42,4,183,127,92,103,140,285,291,26,98,190,213,117,272,174,261,196,30,114,41,178,234,137,119,86,224,116,120,59,267,22,35,244,253,211,60,205,20,131,279,254,249,169,207,184,223,156,51,148,278,112,231,105,271,142,90,113,36,145,176,252,216,40,290,83,159,274,3,44,16,25,180]","60","arrowright","","8"
"","4866","canvas-keyboard-response","20","87623","0.0-9.2-0.2-0.2","arrowright","[95,227,167,80,165,212,209,84,89,251,272,88,20,107,276,261,240,132,51,46,197,129,190,252,265,90,154,177,198,216,105,270,255,3,133,235,24,181,159,205,119,112,26,236,126,54,280,49,12,4,242,102,69,168,65,219,21,96,297,234,178,36,31,273,92,83,282,281,295,68,294,9,233,72,98,101,16,91,215,241,220,110,13,34,40,186,117,32,93,284,279,45,202,41,60,115,161,59,118,160,268,269,85,104,43,250,76,283,64,130,189,223,182,200,162,157,208,187,221,111,188,206,287,204,254,39,173,148,78,180,70,33,50,299,125,17,56,116,172,217,61,99,122,108,193,5,144,77,81,141,87,74,211,128,267,63,257,86,153,37,120,199,164,44,55,14,228,73,289,152,53,264,179,285,184,278,22,79,48,127,174,25,23,106,158,62,47,28,239,262,7,29,196,100,246,203,109,247,195,114,1,18,103,150,166,67,35,137,52,218,97,286,6,170,123,266,230,194,0,214,94,27,222,260,145,226,149,140,121,82,183,298,213,191,259,71,136,244,38,249,146,176,2,224,277,258,192,291,292,155,11,201,207,113,210,225,138,263,245,143,8,293,58,142,156,169,75,229,232,30,147,134,256,231,290,15,175,135,19,171,185,237,131,124,253,288,275,57,42,139,163,274,238,248,243,10,271,151,66,296]","60","arrowright","true","8"
"","10782","canvas-keyboard-response","21","100290","0.0-10.0-0.0-0.0"," ","[189,4,282,89,27,214,148,34,278,231,29,81,77,247,296,266,298,213,61,70,117,137,156,153,91,138,96,105,194,122,123,187,195,45,216,162,106,85,180,57,290,113,222,297,221,166,186,211,39,126,128,177,41,203,32,284,230,84,183,157,147,294,291,100,174,125,88,66,108,249,12,200,289,52,273,76,179,129,38,201,47,37,86,233,132,36,58,97,184,269,67,242,192,17,285,42,118,175,140,271,28,217,241,104,210,191,72,35,253,71,75,114,223,59,240,176,155,172,181,275,127,158,193,48,263,197,20,165,261,270,0,256,234,119,44,82,18,167,225,103,5,9,178,63,206,283,7,6,13,51,205,163,141,3,276,239,1,60,11,22,171,135,281,133,73,33,252,154,295,170,83,254,299,95,260,16,94,264,237,8,232,267,204,65,78,31,286,188,244,169,146,25,23,228,243,202,274,160,124,268,279,288,50,46,99,212,21,15,139,259,40,248,251,110,250,173,68,144,277,87,224,219,159,161,209,116,49,53,80,226,255,190,208,131,151,107,280,115,238,218,134,2,101,98,245,262,168,257,30,150,10,93,152,293,246,79,145,90,292,198,149,164,227,265,102,136,229,111,56,26,109,215,196,43,19,236,121,54,182,55,74,64,185,207,142,120,69,92,235,287,199,220,112,258,62,272,14,143,24,130]","55","arrowright","","9"
"","1213","canvas-keyboard-response","22","103328","0.0-10.1-0.1-0.1"," ","[233,141,6,146,69,41,100,192,40,280,52,216,162,68,266,194,293,173,242,109,142,122,23,77,195,261,26,89,116,145,24,57,48,206,14,127,16,152,190,49,232,33,37,9,159,275,35,18,244,219,95,45,252,110,186,67,247,200,5,273,212,229,225,285,98,115,286,42,167,189,222,199,148,1,169,235,107,10,22,38,101,291,144,213,207,260,65,44,174,282,231,176,298,34,262,92,150,128,135,160,281,157,188,245,58,79,271,96,74,236,230,168,158,287,191,12,196,123,129,15,119,181,221,88,39,60,165,64,114,54,131,59,126,179,73,164,223,43,259,289,130,78,237,295,106,217,138,274,86,102,288,228,254,187,265,180,234,87,218,120,292,153,72,238,47,182,279,290,66,17,8,210,117,256,132,134,248,161,97,201,27,0,83,53,197,82,21,203,264,202,104,278,75,25,133,2,91,263,108,178,255,224,19,13,70,147,209,30,241,249,105,56,143,258,71,93,94,85,220,276,283,208,246,136,239,81,156,163,198,270,250,177,226,90,154,166,269,251,149,277,103,61,63,46,124,51,296,184,118,227,29,84,214,284,170,111,80,140,4,171,215,185,99,175,137,297,125,139,36,211,294,3,31,76,183,272,299,240,193,155,151,55,204,112,257,20,253,113,28,172,7,32,11,205,243,268,62,267,50,121]","55","arrowright","","9"
"","744","canvas-keyboard-response","23","105940","0.0-10.2-0.2-0.2"," ","[283,15,71,293,69,0,107,111,73,286,138,134,157,263,11,88,135,248,10,76,200,146,84,278,217,19,97,100,132,25,46,35,144,79,1,140,260,89,55,95,279,70,61,268,187,249,128,153,251,117,127,160,198,114,72,102,183,17,80,196,6,125,53,220,277,209,172,239,230,222,39,284,137,37,276,255,202,226,7,20,280,223,269,121,199,74,43,167,103,197,156,292,174,131,118,253,49,227,219,188,254,210,235,152,92,110,288,124,242,16,50,207,115,27,164,189,142,52,205,240,224,113,51,106,166,225,270,247,150,155,75,177,193,228,272,241,294,130,298,28,149,195,23,91,173,296,234,194,299,229,101,148,24,214,154,206,119,171,190,3,221,297,256,96,273,145,133,204,281,90,287,67,244,126,48,9,265,31,116,291,168,213,41,112,18,129,163,42,104,266,282,86,123,175,262,62,77,59,105,29,267,34,169,22,5,215,264,250,151,201,181,295,246,143,185,81,47,182,82,63,32,257,218,108,236,211,243,57,165,186,191,21,203,109,208,60,33,176,66,161,258,232,85,136,64,261,178,26,162,252,58,271,30,40,238,12,36,4,87,45,184,54,94,68,78,179,159,147,290,259,180,275,120,285,65,2,122,13,8,233,245,216,139,158,274,192,141,170,212,14,44,93,231,98,237,56,289,38,99,83]","55","arrowright","","9"
"","3995","canvas-keyboard-response","24","111827","0.0-10.3-0.3-0.3","arrowright","[232,126,79,122,291,210,297,104,101,254,192,202,113,7,151,111,173,95,223,128,68,84,205,135,196,182,150,172,293,134,207,180,193,118,136,186,18,164,288,149,137,22,176,27,42,23,138,19,201,9,287,290,89,32,156,221,34,184,17,71,8,105,31,213,96,109,124,80,37,65,91,183,276,275,142,234,26,73,61,252,211,285,43,70,231,258,155,52,246,229,241,5,1,160,141,228,87,162,54,143,225,273,257,199,272,102,67,277,185,48,20,224,216,242,15,209,195,188,129,99,214,41,30,240,197,56,200,107,280,168,28,255,295,25,152,62,235,233,100,45,50,212,108,256,181,76,10,218,53,130,236,266,244,72,215,59,262,39,112,238,217,146,115,86,16,63,140,247,208,40,283,179,298,265,203,44,261,264,82,282,248,69,178,51,166,161,206,190,116,29,133,106,189,14,83,237,49,97,194,230,103,38,268,174,204,0,171,74,117,78,88,132,3,286,13,145,92,274,227,93,191,284,55,175,157,85,6,119,35,33,147,270,159,278,98,36,58,167,251,153,198,299,121,123,260,24,158,60,267,296,259,47,120,64,57,114,226,220,148,170,165,219,169,127,294,281,249,253,279,222,271,144,94,163,2,131,125,187,110,75,46,77,263,139,21,289,90,177,269,239,243,154,4,66,11,245,12,250,292,81]","55","arrowright","true","9"
"","2653","canvas-keyboard-response","25","116314","0.0-11.0-0.0-0.0"," ","[288,95,153,143,145,175,137,66,220,28,217,3,200,59,201,158,210,124,282,167,104,226,45,6,107,129,109,296,27,80,182,245,67,133,242,84,71,170,283,195,14,40,194,130,76,252,215,127,295,193,51,105,189,41,280,257,52,233,123,53,10,171,224,121,103,50,106,26,238,39,21,274,265,176,150,256,166,181,101,97,219,69,116,47,203,146,206,19,174,184,81,163,141,5,266,162,202,136,218,225,49,55,83,33,113,251,32,230,264,248,144,37,64,111,278,46,260,70,42,74,118,78,62,90,253,24,35,169,56,165,108,178,114,117,211,250,292,298,159,100,34,290,89,179,142,57,91,191,147,291,177,236,156,140,82,222,207,228,249,263,281,58,289,212,231,15,44,254,186,272,2,267,92,155,20,43,160,235,99,30,276,85,269,61,232,259,63,270,54,16,152,299,240,246,157,148,268,221,122,180,244,98,279,227,72,284,199,197,120,198,135,229,216,8,125,262,239,131,73,164,12,0,187,132,271,17,48,243,18,258,23,188,1,173,255,286,293,294,234,36,29,214,65,112,94,168,196,205,68,190,154,149,96,277,183,204,138,172,9,13,287,110,261,31,285,297,247,119,88,11,93,209,86,273,213,38,115,25,151,241,126,22,4,185,139,102,223,75,79,60,7,87,208,161,192,77,128,134,237,275]","50","arrowright","","10"
"","6690","canvas-keyboard-response","26","124839","0.0-11.1-0.1-0.1"," ","[274,120,112,182,230,244,82,47,252,118,208,107,255,24,154,299,19,12,57,32,33,72,86,219,94,247,44,238,101,98,221,264,0,273,184,235,52,185,228,209,147,160,240,28,203,124,108,200,133,144,176,284,93,270,137,18,248,46,283,289,76,162,89,117,282,254,69,53,80,262,241,141,225,234,291,206,58,178,104,201,68,13,135,285,227,224,207,111,142,148,287,51,1,70,168,78,223,85,88,165,92,145,36,100,296,30,157,121,77,41,199,103,130,61,25,90,222,277,237,260,253,246,119,127,196,159,192,229,167,152,113,242,11,16,170,97,5,269,22,84,35,128,2,179,23,267,290,281,181,114,166,105,6,65,204,151,60,232,64,63,226,211,268,14,125,189,249,59,233,193,131,265,153,236,183,123,55,79,71,202,39,243,214,155,129,275,158,272,271,288,31,15,38,164,96,136,99,256,298,175,250,194,259,110,49,139,217,220,8,7,34,266,126,218,75,56,216,27,187,297,73,66,294,198,180,10,17,190,171,251,278,173,3,54,258,37,231,212,279,91,134,197,115,210,140,245,191,169,146,9,293,122,40,81,45,42,116,29,102,174,143,26,205,163,67,150,239,295,138,276,83,4,20,149,74,292,43,62,109,263,95,21,213,286,261,106,177,48,280,186,257,87,50,172,161,195,132,156,188,215]","50","arrowright","","10"
"","4097","canvas-keyboard-response","27","130767","0.0-11.2-0.2-0.2","arrowright","[68,124,162,131,74,97,258,96,209,129,82,203,78,80,266,62,169,122,286,272,72,61,192,295,69,126,66,229,240,226,150,143,28,0,249,102,280,241,173,208,195,48,3,91,234,196,177,113,288,207,188,39,142,130,21,239,71,16,214,264,200,184,64,43,89,6,238,163,49,247,175,38,221,88,41,277,75,155,99,282,73,179,32,36,279,265,244,256,104,246,152,260,123,58,34,5,296,170,65,19,269,50,140,259,109,242,245,95,237,119,267,125,243,271,227,120,101,158,42,166,270,194,12,127,217,254,146,204,156,164,53,159,136,24,111,55,176,167,205,236,289,228,4,25,193,18,108,210,54,141,206,283,135,252,149,90,145,30,138,52,274,216,154,211,93,27,281,26,35,115,233,100,255,98,294,23,220,212,287,45,33,231,10,77,248,160,215,168,112,191,198,291,201,86,292,60,84,8,1,276,132,40,137,153,13,106,63,116,92,165,67,46,251,7,299,81,37,76,29,9,161,183,182,290,257,128,185,59,14,202,222,79,147,223,94,297,174,70,224,20,278,151,15,285,11,275,44,117,114,298,199,31,235,110,273,284,17,148,268,253,187,87,230,189,121,218,225,56,47,181,172,180,171,105,219,133,144,186,83,85,262,57,250,118,232,107,213,134,103,293,2,139,197,22,51,261,190,263,157,178]","50","arrowright","true","10"
"","2416","canvas-keyboard-response","28","135017","0.0-12.0-0.0-0.0"," ","[76,185,116,104,29,155,36,41,133,198,265,45,99,183,177,159,225,92,111,217,83,296,150,146,48,157,220,164,21,222,44,86,235,292,100,266,11,22,190,112,169,23,200,31,19,278,207,186,109,285,211,158,248,128,161,267,246,50,197,65,210,247,103,140,49,126,228,223,218,162,199,81,113,33,70,153,184,74,110,230,61,135,30,90,120,253,271,299,175,148,96,56,137,17,5,287,173,78,268,94,281,15,43,10,262,136,98,244,289,89,139,60,229,13,64,134,273,180,226,57,67,232,279,18,252,208,209,195,152,249,178,206,219,187,107,125,143,101,216,291,68,283,138,242,85,191,91,280,63,196,240,156,182,72,51,129,14,73,277,236,256,122,276,181,71,270,75,38,286,237,170,47,263,55,254,272,293,203,34,298,127,233,145,144,32,224,168,2,214,172,194,284,97,24,16,151,165,245,239,154,42,105,264,282,106,25,255,227,238,118,243,142,27,149,290,192,160,66,77,3,59,234,213,7,163,123,205,132,69,6,231,114,288,40,261,260,297,241,102,4,257,9,62,108,269,124,221,37,117,167,20,82,189,80,35,58,275,131,84,204,141,95,179,250,274,88,166,8,215,46,121,52,26,251,28,54,79,0,295,87,115,119,258,202,147,259,176,171,188,212,130,39,294,201,193,93,12,1,53,174]","45","arrowright","","11"
"","1008","canvas-keyboard-response","29","137875","0.0-12.1-0.1-0.1"," ","[189,206,98,131,56,284,95,118,20,63,15,156,202,38,16,58,54,94,192,18,234,102,213,124,117,266,120,249,232,172,25,73,221,71,105,283,4,247,107,182,43,198,147,243,275,214,108,49,207,137,141,161,50,278,10,109,168,37,273,180,127,291,143,252,274,167,200,134,150,184,3,82,197,76,203,34,51,157,254,155,69,196,217,23,136,153,255,5,235,279,70,33,36,61,7,55,281,222,280,241,298,263,215,53,169,297,233,199,295,110,66,242,262,187,231,139,31,13,138,78,62,164,293,251,11,285,121,171,2,128,257,125,209,259,72,101,245,140,45,149,104,111,223,65,42,230,253,290,154,248,64,173,218,22,8,264,282,267,26,246,145,201,9,57,183,85,240,67,39,268,220,48,106,216,258,88,296,97,126,190,30,195,77,179,123,129,46,132,114,59,261,115,84,90,44,205,191,52,1,87,271,176,238,250,188,122,227,204,226,119,288,256,272,75,236,86,287,68,142,260,286,32,0,277,80,116,146,135,60,35,40,89,185,79,270,292,175,144,47,229,81,237,212,112,166,210,289,193,21,219,299,244,181,91,178,170,24,151,208,100,93,225,133,103,12,224,99,29,162,28,186,19,194,294,92,211,165,17,163,74,41,269,96,228,6,14,177,130,158,239,83,276,152,174,113,160,148,265,159,27]","45","arrowright","","11"
"","646","canvas-keyboard-response","30","140396","0.0-12.2-0.2-0.2"," ","[235,26,80,205,33,172,230,109,224,215,103,35,24,39,19,57,115,122,6,266,50,114,174,211,22,61,58,158,93,48,250,32,18,69,193,37,28,176,161,204,202,255,144,245,133,53,110,233,7,299,237,186,134,84,210,171,293,175,240,41,59,65,44,21,229,297,167,218,102,74,261,291,296,123,165,124,258,72,62,271,43,239,201,148,98,185,129,81,132,126,214,71,68,270,259,262,269,10,38,220,209,203,75,29,223,243,88,139,52,49,36,275,120,272,97,180,42,90,178,0,31,294,56,125,179,30,12,166,135,192,155,208,207,94,280,267,140,183,154,150,212,282,147,105,177,199,206,99,226,16,66,188,145,263,181,143,101,284,92,20,169,111,278,253,70,241,27,47,67,9,279,1,232,23,86,244,248,13,149,96,160,5,107,222,289,281,260,4,117,283,127,2,159,219,288,89,157,95,170,91,106,168,77,198,228,164,25,78,268,118,200,11,63,286,290,121,162,163,138,76,246,153,152,82,116,195,64,17,136,46,187,108,252,79,130,257,216,34,173,104,276,54,100,113,119,85,196,238,55,197,213,112,184,256,249,247,15,273,8,83,285,264,231,236,298,217,128,295,87,73,292,251,194,221,227,254,191,45,182,3,142,146,265,156,189,234,151,14,137,131,141,40,274,51,242,190,277,60,287,225]","45","arrowright","","11"
"","678","canvas-keyboard-response","31","142990","0.0-12.3-0.3-0.3"," ","[184,155,104,132,22,171,215,249,265,32,159,255,148,268,258,140,177,123,212,199,292,273,99,17,263,242,109,58,64,16,45,176,136,96,298,120,294,225,293,256,7,51,173,251,42,20,185,56,30,8,91,124,166,237,69,144,29,67,26,47,137,276,200,121,19,163,236,299,106,115,192,188,261,113,60,77,71,174,131,224,44,92,12,250,172,74,241,197,82,270,48,165,269,198,219,205,222,280,168,0,143,9,133,117,190,189,196,170,90,187,128,108,88,238,209,217,27,164,146,175,102,259,50,114,272,130,150,68,228,101,53,278,55,5,41,129,223,21,191,274,266,83,138,23,210,234,169,93,231,183,31,38,156,179,63,79,239,195,98,289,262,246,85,14,94,243,57,66,208,25,290,13,37,1,43,281,28,118,291,235,227,271,15,97,11,116,78,247,33,253,285,135,46,24,49,6,204,257,122,201,65,103,194,36,161,282,72,180,181,218,286,100,84,149,214,220,80,296,162,70,226,73,52,157,152,2,87,240,141,154,127,126,89,252,206,213,277,207,111,142,216,248,10,134,297,221,178,182,167,284,18,254,158,153,145,279,288,3,75,264,125,244,147,4,203,287,160,233,119,86,267,232,193,40,211,59,260,76,34,295,112,95,35,61,39,81,186,62,107,139,275,110,202,283,151,54,245,230,229,105]","45","arrowright","","11"
"","1339","canvas-keyboard-response","32","146250","0.0-12.4-0.4-0.4"," ","[291,186,139,76,184,66,2,285,82,85,29,52,255,167,289,243,13,158,246,127,12,109,100,60,134,295,39,188,8,239,171,80,110,271,23,7,33,234,226,147,31,273,238,62,101,242,93,115,107,163,284,230,241,137,281,249,81,205,59,265,143,154,34,162,222,21,227,212,297,203,191,189,113,153,190,168,94,61,84,26,58,71,0,251,207,165,56,261,131,192,14,104,74,90,290,299,135,262,44,65,35,252,88,132,193,156,37,196,254,166,111,198,48,146,180,145,279,10,287,15,130,245,179,54,18,98,206,182,28,256,181,77,142,92,174,106,124,173,176,195,32,117,36,42,57,150,152,294,16,247,164,30,270,293,201,280,268,120,27,64,86,225,129,170,208,43,258,97,46,121,248,99,183,260,69,41,40,6,51,221,172,55,89,213,38,20,204,123,72,202,114,194,53,240,286,275,187,95,169,235,149,160,266,148,216,4,214,276,136,159,96,105,11,178,177,73,50,119,19,223,63,277,17,79,229,128,3,269,122,22,138,140,209,199,151,108,78,250,283,25,75,200,45,233,5,70,298,141,267,215,210,288,87,112,244,175,274,83,263,68,126,211,185,155,232,9,116,161,133,224,102,292,24,125,197,282,1,220,118,47,157,219,253,236,264,103,237,296,257,67,231,218,278,91,217,272,144,49,259,228]","45","arrowright","","11"
"","2946","canvas-keyboard-response","33","151095","0.0-12.5-0.5-0.5","arrowleft","[186,0,259,93,168,102,195,176,272,224,189,213,280,233,174,54,112,117,27,276,113,39,51,123,223,286,18,250,273,183,43,103,96,122,256,234,255,222,129,299,295,243,160,207,86,9,118,57,229,131,274,191,254,146,110,107,252,173,26,199,134,139,297,109,80,52,164,205,200,159,75,2,277,35,194,31,288,92,235,128,76,163,292,21,24,53,279,100,230,89,105,124,179,155,218,90,37,201,40,221,16,29,62,135,153,206,188,41,20,166,47,216,266,175,79,225,104,143,34,81,262,249,25,268,106,49,211,157,187,120,202,22,19,6,209,228,136,145,170,42,184,3,247,284,99,171,69,64,119,281,161,154,132,91,169,44,241,127,38,17,283,290,214,147,61,23,236,137,30,8,294,232,289,152,108,212,246,4,156,10,83,245,72,278,133,77,248,296,115,94,220,270,46,68,190,33,13,125,165,138,227,101,185,66,111,172,239,12,275,121,298,193,63,78,215,237,151,142,28,271,242,14,291,55,85,204,50,97,45,87,257,59,293,144,260,196,56,141,158,210,5,1,251,267,269,240,238,177,148,95,285,226,182,203,65,88,11,48,60,58,71,7,84,192,265,36,15,244,82,98,162,114,74,67,181,70,287,282,264,149,261,231,150,219,198,197,208,73,126,258,180,116,178,253,130,32,217,140,263,167]","45","arrowright","false","11"
"","1936","canvas-keyboard-response","34","154912","0.0-13.0-0.0-0.0"," ","[235,175,139,114,242,233,116,127,2,84,85,137,239,247,261,142,263,26,262,13,176,231,16,296,212,282,289,24,149,274,290,98,270,51,49,181,190,125,45,66,43,257,240,7,135,299,298,38,148,271,58,131,226,89,39,50,199,189,208,35,68,78,48,229,47,96,61,21,223,102,182,110,206,230,70,11,152,216,136,119,62,97,10,22,179,94,54,36,23,163,107,99,130,77,204,276,173,59,74,8,227,253,284,12,213,228,121,72,117,200,67,248,159,93,56,76,279,57,138,171,69,40,46,292,184,221,260,268,34,20,126,120,187,214,249,32,197,277,278,237,144,275,82,193,52,285,109,146,17,115,288,164,166,267,264,251,283,19,87,5,186,33,71,236,64,27,0,153,252,174,73,28,151,232,111,280,170,177,244,161,250,172,141,25,103,293,209,165,95,122,255,90,14,201,133,225,101,79,286,1,37,55,220,18,160,31,132,246,155,188,41,273,272,106,254,238,259,196,53,108,234,219,218,4,3,112,297,183,158,287,154,202,80,269,241,203,44,185,88,291,113,75,195,83,30,162,9,211,123,222,150,207,205,256,134,156,295,294,217,128,104,91,86,198,168,42,65,258,6,92,215,178,265,180,129,15,281,124,140,147,157,224,29,145,100,81,169,60,105,245,192,63,191,143,167,266,243,118,194,210]","40","arrowleft","","12"
"","897","canvas-keyboard-response","35","157701","0.0-13.1-0.1-0.1"," ","[284,84,78,249,247,256,122,30,164,69,135,193,162,295,109,36,201,6,282,57,155,10,124,113,103,66,281,80,279,136,167,21,40,210,34,148,75,72,70,163,9,266,275,252,22,100,115,7,222,170,151,48,96,156,268,47,24,276,265,142,235,110,14,261,38,116,285,61,216,63,168,225,60,85,153,219,181,76,59,144,255,269,43,79,297,42,289,244,26,117,3,245,97,114,65,215,278,45,186,166,132,187,191,203,169,231,134,228,58,209,133,50,147,258,140,218,74,189,286,234,77,287,104,270,0,230,143,46,55,280,19,99,98,8,44,263,198,257,242,91,183,233,262,253,182,51,175,207,37,89,173,272,107,41,95,192,292,23,81,212,158,196,190,53,29,86,150,251,237,137,112,64,120,49,236,87,159,105,243,217,273,67,197,145,28,174,4,111,161,165,139,177,260,204,32,71,194,130,54,27,239,94,223,178,128,288,283,172,119,240,179,176,213,56,226,126,250,118,220,274,33,199,290,246,264,195,125,129,298,17,188,82,241,294,157,254,184,141,248,20,221,202,123,232,73,83,299,52,171,13,88,131,108,267,1,12,92,227,25,102,208,138,200,291,149,2,185,31,224,15,160,205,214,277,238,206,121,259,211,127,180,5,68,90,293,16,229,146,11,35,152,106,39,271,101,296,93,154,18,62]","40","arrowleft","","12"
"","7008","canvas-keyboard-response","36","166650","0.0-13.2-0.2-0.2","arrowright","[44,276,218,27,39,242,263,160,265,101,173,183,143,243,62,138,157,237,252,185,245,26,294,178,198,109,169,132,41,12,144,1,122,99,165,43,271,184,289,275,232,206,279,266,215,204,156,108,82,20,50,6,195,171,63,38,104,222,233,295,200,286,81,25,129,261,125,229,45,179,130,16,94,284,296,227,256,250,51,214,33,166,35,124,162,71,17,14,180,297,239,192,59,30,67,221,225,69,158,28,135,251,115,201,182,217,207,292,258,230,7,13,278,128,234,68,226,102,186,247,155,150,151,40,46,21,0,47,174,36,199,287,111,23,270,42,110,290,88,133,90,196,172,98,280,15,189,121,97,92,164,106,269,54,29,64,259,282,131,52,176,91,60,210,153,299,34,188,191,161,190,83,137,24,197,235,120,248,241,118,285,127,32,267,293,31,134,177,48,55,58,139,203,73,170,66,277,93,8,53,117,4,238,96,148,212,260,274,49,181,209,223,216,228,142,75,95,152,5,154,145,84,254,3,246,272,168,236,100,240,224,244,220,126,298,123,112,288,85,202,74,77,147,141,103,213,253,19,113,11,70,79,187,2,78,219,72,86,262,281,56,119,57,255,105,136,114,167,149,231,159,107,80,264,146,89,273,268,61,163,87,205,10,211,9,283,76,175,140,249,291,193,22,18,65,37,116,257,208,194]","40","arrowleft","false","12"
"","5306","canvas-keyboard-response","37","173796","0.0-14.0-0.0-0.0","arrowright","[173,39,94,218,281,157,141,269,175,49,148,206,78,234,122,87,149,187,246,47,164,95,72,45,46,37,125,189,287,242,237,290,82,139,27,84,196,66,77,274,169,254,63,1,106,32,210,198,233,16,100,229,297,168,43,162,251,270,54,186,34,170,61,15,156,241,10,142,30,266,134,69,232,293,79,116,204,299,33,272,18,209,17,278,52,99,137,31,214,13,50,256,97,205,259,226,235,4,263,185,223,68,195,212,220,6,280,222,213,132,89,42,193,91,236,282,276,59,264,285,172,215,143,228,283,35,86,176,188,76,74,85,65,252,60,277,128,230,25,152,295,80,14,216,83,180,247,275,224,155,58,253,104,20,291,239,62,161,177,22,147,44,202,118,71,248,48,75,219,40,268,211,92,154,119,55,21,179,70,114,181,117,165,113,110,107,158,81,171,227,51,88,102,199,38,109,9,190,73,182,150,135,153,19,184,267,240,98,207,183,243,271,262,121,208,56,126,279,53,108,159,255,101,203,131,93,273,96,103,166,292,265,29,111,140,112,90,197,249,67,160,115,258,145,298,244,3,286,105,41,120,130,144,225,174,11,238,7,284,146,23,57,261,260,257,12,28,194,217,26,24,200,288,192,289,231,123,64,127,138,151,191,221,36,136,2,296,250,294,8,163,129,124,167,0,133,178,201,5,245]","35","arrowleft","false","13"
"","2707","canvas-keyboard-response","38","178349","0.0-15.0-0.0-0.0"," ","[202,0,276,73,199,132,86,262,161,43,65,31,26,187,67,286,38,68,7,186,167,194,121,145,58,56,242,261,268,100,203,24,299,181,18,223,270,230,11,97,91,294,205,116,28,17,188,112,46,77,83,177,87,119,102,193,244,82,269,256,34,245,169,283,241,257,10,44,125,130,106,172,49,79,260,114,243,226,84,127,278,279,141,111,208,151,104,149,214,98,75,123,158,146,71,258,117,41,189,271,163,92,105,19,2,289,288,85,178,251,197,296,54,232,129,293,295,224,259,215,233,36,173,140,48,281,155,237,133,183,23,234,212,35,1,235,250,101,204,219,285,126,221,20,103,5,191,216,282,40,135,108,238,109,297,211,184,136,171,88,12,3,277,174,287,64,231,15,275,228,253,201,144,29,264,162,59,78,236,220,192,47,63,298,284,42,120,22,45,134,248,252,39,142,168,175,249,159,74,180,292,217,164,179,70,152,25,131,227,50,115,33,196,185,80,139,150,30,143,266,76,148,107,52,156,128,247,61,267,166,124,170,55,160,222,118,8,138,72,110,254,273,96,265,206,90,229,57,198,165,27,176,290,291,209,81,51,218,21,147,210,195,99,246,14,153,9,255,16,66,157,60,122,13,190,6,200,240,37,280,213,93,182,239,53,69,62,4,32,274,137,263,89,272,207,225,113,154,95,94]","30","arrowleft","","14"
"","998","canvas-keyboard-response","39","181211","0.0-15.1-0.1-0.1"," ","[261,40,154,211,262,23,60,44,210,288,110,17,183,55,240,278,76,292,174,251,283,112,15,264,221,246,91,249,54,79,82,173,155,116,230,101,206,46,136,16,133,59,27,182,63,77,88,99,69,1,216,125,124,187,285,132,271,114,29,93,18,233,280,95,8,5,74,247,238,87,202,156,65,24,32,86,19,200,274,166,293,149,6,282,118,9,213,127,150,214,11,115,265,237,179,141,25,295,160,36,67,89,197,137,50,227,177,140,13,298,147,188,131,299,215,257,259,22,159,119,209,134,3,38,169,100,244,138,47,102,45,142,28,75,186,256,232,113,245,164,94,39,296,180,176,287,153,4,181,218,289,279,224,252,121,253,108,41,37,276,106,34,254,191,294,231,103,71,20,51,217,184,53,277,255,151,250,90,286,42,242,78,7,204,56,220,161,33,52,199,241,198,263,73,122,68,258,175,0,70,80,272,194,96,57,290,162,81,62,58,61,135,30,104,146,297,165,105,109,49,195,117,219,12,129,107,269,144,152,266,190,192,205,171,243,98,48,168,163,248,268,228,170,226,178,97,43,21,284,229,273,143,10,201,291,158,2,26,235,236,123,207,92,64,281,157,128,270,260,234,225,35,167,193,172,223,203,31,72,83,208,145,267,148,85,212,139,189,222,111,239,66,185,84,126,130,196,275,120,14]","30","arrowleft","","14"
"","1856","canvas-keyboard-response","40","184971","0.0-15.2-0.2-0.2","arrowleft","[102,222,118,282,45,84,279,124,123,42,37,180,228,87,18,20,1,293,137,277,227,229,220,95,280,254,64,252,177,9,212,150,170,79,259,149,41,23,265,109,86,39,240,133,198,197,82,257,268,77,291,163,105,210,121,145,239,138,260,111,176,290,232,251,19,191,235,216,292,117,125,46,289,261,67,26,249,22,7,70,32,236,119,287,44,54,108,195,71,283,17,61,113,298,27,94,276,154,147,286,78,83,128,130,80,183,263,211,153,36,92,188,40,106,135,234,226,182,62,49,204,242,208,58,288,56,161,246,114,241,25,28,47,85,5,73,151,75,164,192,127,266,159,224,52,120,201,253,131,256,59,91,199,57,76,101,270,267,152,218,12,247,281,88,0,72,196,245,34,250,126,13,24,186,274,175,174,285,112,65,155,207,115,143,103,284,243,141,190,162,172,96,107,132,10,233,134,202,296,21,194,167,203,15,144,31,231,217,8,2,142,185,4,53,272,129,264,99,221,205,69,93,104,219,248,122,171,295,213,165,262,35,200,11,166,275,60,160,100,110,209,184,278,43,178,299,258,225,48,238,206,33,55,181,38,273,214,271,146,297,187,81,66,89,294,173,63,168,156,148,51,98,97,230,189,237,215,255,136,90,16,50,244,179,74,3,158,30,157,169,6,116,193,14,29,140,68,269,139,223]","30","arrowleft","true","14"
"","2589","canvas-keyboard-response","41","189427","0.0-16.0-0.0-0.0"," ","[90,243,176,6,32,207,72,9,177,225,151,190,139,34,284,241,283,181,259,226,92,99,22,195,156,44,65,152,79,128,132,290,126,89,64,39,249,276,228,104,216,38,86,111,71,74,264,119,286,293,217,129,164,70,160,109,130,282,179,252,127,60,15,131,271,213,61,274,100,134,257,169,27,83,297,21,158,66,232,20,208,212,62,223,87,116,244,193,147,121,206,137,95,242,235,67,236,136,141,76,49,204,238,215,81,77,299,148,24,269,120,262,267,47,97,1,5,255,57,55,52,166,183,114,210,46,194,281,7,188,25,289,78,233,173,68,37,291,31,222,36,248,53,199,180,16,96,143,50,253,263,227,174,146,272,186,113,230,185,288,219,161,138,75,218,296,85,196,239,150,224,254,135,149,73,165,106,2,112,102,234,170,12,197,88,42,279,167,0,153,287,250,48,63,23,58,265,133,123,45,201,261,198,122,237,189,202,247,84,200,124,163,172,110,4,13,80,192,155,40,175,51,240,54,260,184,19,145,17,29,98,56,280,292,209,28,205,108,295,191,82,14,10,107,157,273,11,3,214,140,59,187,258,35,18,162,277,103,270,94,298,144,168,285,41,171,211,125,203,117,246,105,93,221,182,118,43,154,142,33,220,69,8,30,115,26,268,229,251,266,91,294,275,245,231,278,101,256,178,159]","25","arrowright","","15"
"","1255","canvas-keyboard-response","42","192572","0.0-16.1-0.1-0.1","arrowright","[221,222,197,294,33,0,101,76,182,25,227,173,187,212,153,267,244,104,137,82,54,56,86,234,138,206,130,292,110,275,179,51,272,58,89,3,266,283,20,261,231,43,5,157,263,154,96,32,79,118,273,252,286,200,81,169,50,262,151,142,166,237,270,124,9,196,255,46,188,106,297,219,195,190,241,92,276,73,24,224,22,84,265,40,87,236,264,126,228,268,232,210,120,233,242,247,203,34,98,114,184,213,78,218,111,235,53,42,55,199,63,165,168,109,259,66,205,48,148,23,28,17,161,278,31,74,8,164,269,13,45,281,10,163,125,133,103,69,171,94,229,41,95,85,249,121,152,238,176,211,123,285,216,71,29,230,97,36,47,186,44,293,11,72,7,35,2,21,198,258,6,225,299,253,256,139,245,284,250,70,107,115,288,214,162,150,14,128,30,260,295,177,140,116,194,136,192,145,149,193,143,277,88,223,122,172,77,251,290,52,208,215,129,217,226,119,99,4,296,289,248,12,60,39,174,246,59,204,19,91,280,37,291,62,64,80,16,183,220,159,160,15,105,135,191,134,100,108,254,178,112,279,127,113,18,189,271,185,68,201,209,180,146,181,282,158,167,57,93,287,155,175,170,274,90,83,102,202,239,75,240,141,38,65,132,61,67,49,1,207,147,144,243,27,117,26,257,156,131,298]","25","arrowright","true","15"
"","1631","canvas-keyboard-response","43","196157","0.0-17.0-0.0-0.0"," ","[57,241,162,106,86,89,122,120,49,46,176,188,123,182,199,4,66,271,2,56,154,222,273,263,245,239,252,183,164,63,258,29,15,235,53,8,47,0,7,28,204,299,78,244,296,40,81,158,184,276,151,67,191,227,101,292,30,45,208,112,1,298,135,260,284,129,68,54,169,100,105,221,41,247,70,278,107,232,141,248,88,113,210,93,168,143,186,147,37,159,287,200,157,288,87,167,10,24,115,255,50,264,293,213,178,108,27,250,206,144,80,295,224,13,73,171,90,272,118,274,214,52,44,212,229,177,109,91,104,234,175,72,251,110,71,249,42,21,132,223,286,75,127,94,201,217,230,126,262,233,268,136,131,138,219,64,283,253,218,149,133,36,269,20,180,280,266,139,153,289,130,165,216,26,51,220,290,137,231,9,145,187,236,150,194,83,60,270,142,198,18,225,97,185,161,95,19,246,259,103,240,228,33,170,124,82,59,22,76,205,31,211,285,160,291,32,117,3,146,237,5,35,254,163,77,209,294,265,119,297,11,23,197,34,190,181,96,79,196,25,65,14,275,140,242,281,152,84,134,256,111,39,116,85,98,102,58,215,69,195,55,6,238,61,189,179,156,193,128,243,38,17,16,99,192,92,12,155,125,207,257,48,202,267,261,174,62,43,114,166,74,203,279,173,172,277,121,226,148,282]","20","arrowleft","","16"
"","2072","canvas-keyboard-response","44","200416","0.0-17.1-0.1-0.1","arrowright","[183,177,67,7,74,99,281,2,270,113,197,29,292,68,81,104,133,50,41,70,163,135,61,190,256,149,186,172,129,192,181,107,91,145,52,208,10,293,216,274,289,230,105,5,136,271,201,278,58,131,241,255,264,97,130,121,56,215,100,27,160,247,275,283,195,76,13,88,8,194,44,115,277,26,297,276,72,166,169,143,193,45,37,182,174,164,203,218,38,260,291,191,242,20,137,198,101,263,280,244,225,86,234,66,28,254,257,153,6,9,298,12,236,4,259,223,103,62,162,142,243,251,11,109,152,78,154,18,114,42,170,219,250,140,171,16,213,240,209,147,221,206,21,238,249,35,235,222,226,204,252,124,90,47,75,25,200,179,1,69,139,89,211,134,98,93,253,168,54,295,258,269,84,96,217,233,49,267,279,156,46,83,224,118,212,202,125,117,159,176,60,73,106,34,286,246,108,31,82,239,205,51,151,55,127,138,232,32,157,155,65,141,40,94,229,187,265,122,196,48,161,158,189,112,248,261,111,128,178,184,175,294,77,144,85,290,39,199,15,245,120,36,210,59,123,116,173,87,167,22,231,23,299,237,288,63,266,19,64,30,262,132,148,180,165,53,207,272,3,220,214,227,110,268,24,228,79,126,296,150,119,0,92,102,95,14,282,285,287,43,188,57,185,71,284,146,17,80,33,273]","20","arrowleft","false","16"
"","2728","canvas-keyboard-response","45","205029","0.0-18.0-0.0-0.0","arrowleft","[240,262,119,24,127,150,83,129,151,20,22,73,13,2,47,137,157,170,224,154,197,226,82,178,211,41,53,143,169,104,216,111,60,102,6,81,272,116,214,164,123,17,37,193,75,92,235,168,281,225,228,99,96,284,275,251,257,195,289,70,57,297,266,186,247,63,110,190,199,138,55,12,115,40,283,191,79,148,276,212,299,52,176,141,23,140,268,278,128,121,106,18,196,229,166,26,238,14,253,227,34,215,250,74,171,48,3,280,68,252,291,132,54,172,135,294,0,187,202,51,189,108,71,287,124,152,217,139,112,19,173,232,27,279,72,144,222,271,258,5,239,244,210,117,43,133,90,107,230,254,270,256,61,76,298,130,80,259,30,38,67,28,184,77,165,207,105,65,295,8,93,213,231,36,87,292,15,9,120,66,98,243,109,223,220,84,198,180,58,113,288,249,94,62,97,4,118,25,237,10,33,131,101,175,167,21,296,162,255,100,46,145,201,50,159,59,206,95,64,29,156,158,69,209,16,1,248,142,274,204,188,45,56,78,39,246,218,194,153,203,208,160,205,181,234,265,282,114,177,161,125,88,136,182,273,179,174,290,163,261,103,134,155,293,183,85,263,219,31,11,32,236,245,86,267,49,44,126,149,286,242,221,7,185,146,264,260,277,42,147,35,241,233,285,89,91,200,269,192,122]","15","arrowleft","true","17"
"","2290","canvas-keyboard-response","46","209160","0.0-19.0-0.0-0.0","arrowright","[291,227,189,27,23,252,121,285,219,215,34,197,93,298,251,39,60,260,85,107,21,98,193,179,277,71,12,271,111,199,40,130,17,283,99,106,166,95,217,188,149,135,47,284,35,216,237,18,221,50,282,52,100,75,295,196,225,212,143,78,113,2,104,288,42,105,213,148,43,0,53,257,76,81,294,15,7,141,243,70,190,38,37,112,266,177,132,255,142,131,158,89,20,200,162,82,230,138,24,55,171,235,96,5,127,61,289,49,290,59,91,160,234,134,247,275,153,226,287,69,139,88,250,118,133,29,72,232,242,77,145,201,67,129,156,25,6,262,30,125,3,58,172,164,168,161,137,239,80,204,280,94,209,28,150,218,8,181,122,187,210,241,180,68,13,63,211,123,146,119,264,115,223,86,14,206,259,167,205,170,254,157,245,174,224,155,292,258,296,103,263,281,10,154,120,108,191,54,11,198,87,165,195,175,73,279,51,92,66,265,1,249,136,276,286,102,57,236,62,203,222,169,97,228,274,22,261,44,41,208,16,110,144,192,173,9,240,273,278,56,83,214,128,84,272,36,299,231,244,117,220,114,152,202,194,207,185,31,163,159,256,268,178,246,238,46,182,293,109,64,269,186,33,32,253,101,229,140,48,116,183,26,19,248,124,270,65,4,74,297,147,267,151,233,184,126,176,45,79,90]","10","arrowleft","false","18"
"","2378","canvas-keyboard-response","47","213393","0.0-20.0-0.0-0.0","arrowleft","[136,250,31,155,157,51,209,288,297,150,20,176,108,130,73,142,220,38,252,289,66,257,192,167,111,195,139,244,119,246,124,123,83,84,59,0,15,270,34,62,299,210,170,122,196,10,293,96,218,271,46,260,6,200,75,245,5,298,263,120,206,57,132,100,94,174,89,116,50,264,35,117,80,286,113,63,158,188,173,131,13,185,203,60,282,290,253,55,234,266,238,43,146,154,178,87,17,37,144,145,237,231,41,25,162,135,106,29,118,281,65,128,248,208,86,49,284,156,141,207,219,95,222,189,126,90,93,201,24,183,138,105,40,258,224,160,69,249,215,153,70,112,107,175,78,23,211,67,172,280,44,68,109,101,71,72,1,21,186,45,18,163,187,16,228,212,216,134,229,164,32,279,79,198,19,269,274,9,233,151,104,74,7,205,99,152,171,8,129,227,204,3,97,291,255,199,230,275,241,232,283,223,147,54,181,76,276,133,256,125,115,77,88,148,165,149,12,273,225,82,180,236,217,166,179,110,259,262,30,190,239,39,47,197,22,268,296,103,261,251,221,247,277,214,114,182,48,102,242,254,278,42,26,193,240,194,4,61,294,213,127,2,287,27,11,272,85,121,81,295,53,235,36,292,56,226,243,92,177,28,184,169,64,33,202,168,143,267,52,140,58,191,91,14,285,161,98,265,159,137]","5","arrowright","false","19"
