"view_history","rt","trial_type","trial_index","time_elapsed","internal_node_id","response","nodesOrdering","cliqueSize","correctResponse","correctnessOfResponse","presentationNumber"
"[{""page_index"":0,""viewing_time"":2310}]","2310","instructions","0","2312","0.0-0.0","","","","","",""
"","4440","canvas-keyboard-response","1","8725","0.0-1.0-0.0-0.0","arrowleft","[191,287,12,216,34,204,77,45,275,157,41,81,271,295,166,220,85,3,246,61,245,284,101,286,296,108,42,57,54,254,43,117,73,273,67,2,174,290,14,107,136,227,69,236,103,134,87,146,21,0,249,28,240,288,210,19,37,193,10,260,180,226,209,162,130,100,112,64,178,78,206,20,8,126,145,111,298,48,143,46,76,102,131,192,95,55,4,233,88,213,169,17,277,75,195,205,256,137,147,173,282,144,84,250,297,18,26,155,164,9,62,153,50,244,97,283,185,47,265,184,90,237,118,129,258,225,98,276,71,230,79,163,186,72,5,188,299,148,176,289,139,29,266,15,114,125,149,259,261,6,110,39,23,292,196,154,152,203,168,253,120,257,128,140,248,151,24,231,161,49,142,123,251,16,33,208,217,32,115,197,59,165,255,238,138,278,30,215,53,269,58,156,116,177,135,200,82,280,274,294,272,66,56,70,264,229,25,122,172,221,86,285,182,160,222,183,201,31,199,127,92,159,105,91,109,167,228,214,141,7,270,241,239,68,243,189,175,133,158,190,234,113,13,224,267,124,36,22,194,94,291,252,211,281,242,219,171,99,119,150,63,293,181,212,35,106,40,89,38,1,170,263,218,232,132,262,65,52,198,104,74,44,235,80,187,27,202,207,93,11,83,279,247,51,268,223,60,96,121,179]","100","arrowleft","true","0"
"","3959","canvas-keyboard-response","2","14543","0.0-2.0-0.0-0.0"," ","[170,67,173,24,233,199,257,292,156,190,96,110,51,191,278,57,84,159,166,6,73,282,197,130,83,289,94,80,86,168,55,241,299,287,167,9,260,204,162,103,66,125,150,172,53,239,77,198,294,109,88,54,124,251,60,176,155,148,164,169,133,188,209,142,174,266,102,38,296,259,72,249,205,274,25,194,196,275,240,226,43,139,107,36,242,31,63,68,201,273,202,70,27,90,147,61,295,26,23,262,87,182,193,218,236,253,248,216,81,128,221,265,264,214,78,222,101,98,59,160,113,49,267,132,47,217,8,140,179,189,17,277,138,228,258,285,121,238,20,250,247,52,279,89,37,225,187,158,14,283,227,143,10,293,195,290,280,58,175,136,11,200,286,44,269,3,85,119,210,224,34,114,245,134,212,144,21,206,234,118,13,46,230,48,181,111,131,232,151,7,0,19,1,161,298,272,213,112,165,276,4,123,270,69,154,74,180,35,64,220,135,178,243,281,115,93,141,291,104,18,237,184,2,183,40,157,42,91,100,215,39,223,145,185,76,207,29,203,30,79,126,65,261,256,16,284,15,22,137,255,62,297,106,71,95,235,231,92,263,56,254,117,105,271,116,41,229,12,288,129,127,5,186,32,28,219,208,108,50,211,268,252,192,75,45,171,177,97,33,120,149,246,146,99,82,152,153,163,122,244]","95","arrowright","","1"
"","2394","canvas-keyboard-response","3","19129","0.0-2.1-0.1-0.1","arrowright","[30,262,212,219,113,79,155,148,225,207,127,162,147,14,266,182,252,57,279,263,260,205,176,60,198,172,165,20,259,67,54,233,255,15,68,167,216,97,16,26,169,250,111,131,58,150,43,29,104,32,157,120,7,289,139,286,282,241,199,296,244,215,52,126,214,70,105,25,93,72,151,202,44,95,196,18,217,124,75,9,183,112,55,33,179,103,230,76,138,133,141,274,153,251,270,88,115,269,276,129,152,66,50,39,37,145,261,192,100,194,91,184,130,258,242,106,220,285,284,171,114,173,35,201,271,31,231,117,245,203,158,159,232,12,246,278,119,41,149,142,267,73,59,56,4,277,81,87,63,200,8,188,23,128,62,185,156,109,280,134,272,257,189,19,221,27,1,211,51,213,195,13,47,0,204,294,275,222,125,164,6,180,293,49,122,21,82,24,190,268,218,210,298,273,99,254,144,163,3,118,235,288,65,295,287,110,208,193,86,28,226,283,177,256,181,36,248,290,197,264,90,132,174,209,224,116,299,265,69,2,161,102,96,89,40,48,186,240,281,61,223,140,101,64,291,80,168,74,71,84,107,236,45,247,92,85,135,160,121,175,227,238,243,137,292,38,136,146,206,42,11,46,98,297,239,22,237,166,10,234,34,143,94,170,77,17,229,228,191,83,253,78,178,187,108,123,154,53,5,249]","95","arrowright","true","1"
"","4157","canvas-keyboard-response","4","25290","0.0-3.0-0.0-0.0","arrowright","[32,101,276,206,73,236,119,297,255,15,149,263,284,53,257,176,194,252,84,116,269,123,2,177,237,129,229,158,27,35,148,207,66,293,244,104,295,151,112,118,72,106,128,234,126,7,45,213,42,57,178,46,3,299,58,298,287,180,270,154,188,259,160,19,296,203,48,223,279,157,268,189,12,175,143,91,280,228,191,241,186,182,277,71,127,174,97,285,159,74,133,139,227,29,39,87,219,167,240,202,62,5,80,124,6,125,168,226,78,114,184,260,225,136,278,76,132,289,49,204,156,201,0,291,209,220,221,105,258,28,98,52,251,253,120,20,211,24,33,93,121,82,108,37,31,163,222,193,232,89,169,14,242,88,17,212,134,231,165,197,131,102,103,96,243,179,64,4,117,224,113,261,147,199,183,272,292,172,208,190,195,9,262,281,198,13,210,218,8,23,36,187,264,21,55,68,10,83,90,38,166,153,92,85,290,65,185,61,141,60,266,230,250,215,171,51,145,99,94,25,67,248,135,150,274,77,18,246,235,54,107,22,233,164,238,245,155,173,59,288,44,47,140,115,256,1,70,137,86,239,11,110,216,50,249,294,273,111,142,40,75,170,282,41,283,205,144,138,196,286,247,265,146,26,217,109,43,122,30,56,200,100,275,16,34,271,162,79,81,161,130,152,214,254,181,192,69,95,267,63]","90","arrowright","true","2"
"","3257","canvas-keyboard-response","5","30376","0.0-4.0-0.0-0.0"," ","[136,49,250,80,222,52,33,295,45,75,14,9,292,166,37,0,179,294,260,183,267,188,105,165,56,180,111,284,236,296,251,18,184,160,297,35,100,55,253,117,202,110,124,264,217,241,77,153,167,5,82,249,15,134,130,276,163,212,232,214,30,76,279,285,283,243,39,288,63,211,205,103,85,48,91,57,60,101,228,196,270,66,138,38,225,282,47,269,10,74,199,246,25,220,129,120,248,44,79,107,46,291,194,182,190,27,164,69,95,122,54,137,203,230,11,175,89,83,151,26,144,135,256,148,154,172,265,168,12,90,1,2,281,84,81,234,17,108,24,244,99,181,31,257,170,171,299,140,274,233,94,177,286,210,238,209,34,21,239,131,187,98,78,72,189,271,200,213,237,128,88,70,36,263,19,221,59,118,185,32,119,247,245,193,157,116,62,273,223,65,40,266,143,147,155,242,207,42,150,298,272,198,268,159,64,161,53,115,218,192,139,261,197,174,208,149,50,73,142,3,152,252,293,176,240,8,231,289,121,204,43,96,6,112,280,123,68,51,104,277,275,278,255,216,29,114,235,132,156,258,71,102,141,224,61,145,146,58,227,113,4,262,41,259,229,87,173,191,287,67,206,86,126,7,201,125,169,16,109,254,215,186,93,28,97,22,127,290,23,162,92,178,226,158,219,13,195,20,106,133]","85","arrowleft","","3"
"","2438","canvas-keyboard-response","6","34684","0.0-4.1-0.1-0.1","arrowleft","[210,200,9,288,83,285,86,17,113,64,271,20,110,289,283,42,227,7,0,182,195,46,222,24,202,163,269,258,224,247,246,259,248,230,270,211,18,177,106,179,216,81,104,36,65,23,189,22,299,118,165,91,291,73,194,50,176,31,178,273,150,19,111,11,157,203,167,35,238,16,139,220,201,275,43,55,276,121,38,155,286,191,223,98,99,243,280,34,60,287,215,76,153,184,159,80,101,249,124,33,244,47,193,240,123,13,48,97,79,251,126,89,158,231,237,214,226,77,14,134,52,148,175,138,53,1,265,146,228,281,63,144,293,93,87,133,253,284,90,296,39,208,102,255,27,107,156,180,45,151,92,29,277,69,74,266,172,245,6,8,44,192,5,143,131,117,108,109,3,128,170,232,218,149,147,115,15,96,103,116,256,88,212,174,162,229,206,186,135,129,127,261,28,152,12,234,145,213,30,66,68,267,188,94,295,78,10,171,190,260,217,242,187,32,181,205,70,54,37,183,61,141,264,112,40,282,51,56,100,199,164,233,268,132,198,49,136,263,290,58,57,279,21,4,26,71,235,207,41,297,84,160,2,62,262,294,59,166,221,254,137,142,292,225,252,105,168,140,197,25,236,75,67,130,169,114,154,95,272,257,120,72,209,122,82,185,85,250,241,278,196,119,239,298,161,125,173,219,274,204]","85","arrowleft","true","3"
"","2295","canvas-keyboard-response","7","38817","0.0-5.0-0.0-0.0"," ","[276,99,181,79,93,220,282,94,248,292,216,163,129,200,262,242,118,110,48,271,39,3,77,226,59,241,148,17,285,101,66,152,85,8,208,186,198,70,83,232,174,289,111,97,239,297,22,49,82,296,104,160,124,184,121,84,217,55,219,145,45,120,290,54,32,233,229,210,69,175,257,28,151,294,279,27,237,116,60,156,1,291,214,298,103,37,247,221,187,47,293,139,142,191,134,88,178,260,21,199,5,143,51,238,253,278,194,138,283,268,222,108,231,165,86,106,266,161,173,81,270,189,24,9,147,57,170,203,209,295,182,136,14,114,212,15,251,286,95,179,122,275,228,20,87,7,169,63,223,252,280,171,10,155,75,205,16,159,137,240,78,113,183,29,46,56,225,44,254,227,19,154,128,250,162,281,36,2,207,71,284,23,117,234,25,133,206,126,218,180,26,53,150,288,269,197,177,13,107,18,96,135,211,192,273,166,195,272,72,6,258,50,74,230,246,115,98,41,274,73,243,42,38,201,4,68,80,202,141,265,102,35,149,196,112,215,188,185,91,261,61,89,31,140,33,130,11,34,193,105,264,119,131,40,277,52,123,76,172,146,64,62,109,224,176,12,190,287,100,65,144,158,90,67,204,167,267,213,256,58,0,263,164,259,299,236,244,168,30,255,132,125,249,92,245,153,235,157,127,43]","80","arrowleft","","4"
"","2900","canvas-keyboard-response","8","43582","0.0-5.1-0.1-0.1","arrowleft","[194,278,55,231,96,15,179,223,111,119,297,34,288,178,21,214,138,72,99,234,136,9,139,205,193,238,48,145,45,197,252,4,254,270,236,298,18,127,126,225,116,256,57,282,80,46,201,29,62,107,106,40,22,52,245,16,47,290,41,25,24,50,185,90,276,265,219,98,198,120,28,6,97,164,110,189,132,105,229,69,158,92,35,143,100,14,188,281,94,263,204,299,196,122,153,79,279,235,1,259,117,177,88,210,63,253,212,224,39,272,283,287,76,130,217,187,275,226,56,165,70,71,162,77,26,0,209,58,115,148,200,20,232,7,181,81,118,5,44,60,8,273,292,258,169,43,135,163,109,102,95,202,262,180,112,170,213,233,190,184,38,173,291,203,250,51,251,141,104,206,129,284,103,182,239,61,247,10,295,240,82,85,121,78,285,150,157,216,84,83,260,151,167,65,30,176,242,93,294,296,289,243,199,241,73,249,255,142,208,12,68,91,149,33,175,221,31,147,59,237,174,64,36,131,125,66,186,108,161,267,172,152,230,244,74,67,168,257,144,101,171,248,286,246,37,140,207,183,32,146,228,293,192,19,280,274,54,268,13,156,27,2,277,3,227,133,113,269,159,134,137,160,114,23,123,195,89,154,87,11,17,86,211,155,128,261,218,264,124,166,75,222,215,266,191,271,53,220,42,49]","80","arrowleft","true","4"
"","1229","canvas-keyboard-response","9","46681","0.0-6.0-0.0-0.0"," ","[202,275,74,18,13,268,208,60,220,34,177,81,163,6,5,272,256,225,141,103,293,63,252,182,245,25,124,228,246,150,43,200,68,48,118,191,115,50,30,2,215,241,277,170,111,136,32,117,236,207,133,237,217,35,97,161,149,261,292,49,164,108,23,70,296,40,67,179,195,98,59,284,64,148,247,86,120,122,257,123,178,291,173,73,21,232,147,77,158,16,218,110,167,262,46,80,276,285,211,239,44,214,213,45,53,52,227,210,159,287,297,188,235,221,283,37,243,4,143,14,139,88,107,259,116,41,244,22,71,222,183,152,290,174,29,250,263,12,38,157,125,145,295,264,102,61,279,92,154,282,100,166,184,231,95,203,39,278,75,1,85,260,79,146,90,176,129,273,119,155,76,249,131,93,255,127,201,229,199,204,105,216,189,51,253,153,27,142,254,89,274,212,0,267,42,65,289,72,171,20,193,175,132,101,271,280,8,47,248,251,82,134,230,197,151,78,55,106,194,112,233,169,288,223,185,87,109,126,7,209,266,62,83,234,240,196,57,156,242,11,91,238,9,3,24,198,121,140,181,299,58,186,15,224,28,172,66,180,130,31,17,286,137,165,114,19,269,190,10,135,265,94,298,226,96,99,56,160,219,104,69,84,54,270,144,162,281,206,192,294,36,168,205,138,33,258,26,113,128,187]","75","arrowleft","","5"
"","676","canvas-keyboard-response","10","49364","0.0-6.1-0.1-0.1"," ","[189,186,175,182,98,250,184,122,159,115,137,112,2,239,75,19,38,83,217,15,296,9,289,134,166,48,288,232,27,57,177,121,36,257,222,259,71,248,139,102,145,241,255,226,195,84,44,101,116,199,97,89,245,167,211,274,46,209,280,4,28,128,267,268,56,273,298,237,41,271,99,20,108,219,172,149,14,47,65,131,82,207,33,155,196,292,282,55,254,210,151,252,1,31,30,113,132,119,247,290,244,163,180,221,276,12,153,265,150,53,164,67,294,76,45,251,213,158,214,74,22,110,263,26,205,140,218,216,152,185,295,39,111,141,161,142,77,287,106,187,208,281,262,50,291,231,157,138,3,229,133,275,212,129,95,160,42,87,10,236,127,249,215,168,183,66,190,43,170,62,240,283,92,37,278,79,228,16,235,220,100,32,8,223,49,86,269,204,7,253,272,130,104,135,40,169,194,107,277,114,156,243,146,58,6,173,88,64,78,266,242,147,154,260,69,118,197,293,143,126,5,11,179,18,21,54,72,103,178,63,192,61,246,34,91,120,264,227,270,162,144,85,299,279,90,52,191,59,125,70,136,224,188,25,176,181,193,261,286,171,117,0,51,206,13,94,165,238,256,68,73,17,284,96,60,285,174,297,148,93,203,35,29,200,233,123,230,234,198,201,23,80,225,81,258,124,105,24,202,109]","75","arrowleft","","5"
"","1399","canvas-keyboard-response","11","52704","0.0-6.2-0.2-0.2"," ","[270,29,193,162,39,205,283,53,186,38,69,182,55,160,244,233,128,138,241,134,5,148,275,195,183,10,225,22,171,152,269,149,256,82,242,255,155,123,268,281,153,276,217,118,296,73,142,44,249,274,297,137,1,132,194,56,108,295,101,103,17,226,0,27,49,20,245,266,51,284,140,216,72,292,166,112,218,265,259,129,6,99,215,104,85,252,260,121,161,80,157,208,232,191,54,64,213,220,202,50,187,41,177,131,298,77,178,74,201,31,21,24,34,2,173,47,231,58,32,263,147,78,141,35,212,285,190,185,109,165,219,179,224,65,61,222,30,278,95,273,210,184,223,67,240,234,282,126,119,287,257,198,170,136,204,135,48,8,164,60,26,277,9,94,143,116,209,144,4,11,176,107,197,168,192,294,146,90,125,169,145,25,111,227,122,91,290,59,243,96,288,66,159,43,40,16,97,102,98,106,42,33,248,117,238,230,200,280,188,114,93,79,196,189,207,28,14,239,92,130,7,13,261,3,84,127,247,83,174,150,23,299,272,229,68,120,62,70,293,180,237,86,89,254,46,267,203,15,139,88,36,63,75,262,286,81,18,228,236,52,156,221,124,163,172,133,199,279,175,57,214,251,19,12,206,110,291,105,154,264,167,100,71,87,76,151,289,45,115,258,113,235,246,158,211,271,37,250,181,253]","75","arrowleft","","5"
"","1571","canvas-keyboard-response","12","56273","0.0-6.3-0.3-0.3","arrowleft","[131,253,176,32,8,261,166,239,235,225,205,189,139,107,43,267,33,21,40,168,186,119,212,36,256,67,224,73,266,98,264,193,74,41,57,210,203,230,135,273,220,69,232,110,274,51,100,236,190,269,142,199,284,271,113,294,223,178,207,280,104,278,204,23,288,54,283,52,191,120,72,159,184,28,63,153,172,240,188,289,117,132,76,19,87,116,88,226,297,156,262,86,56,173,277,111,53,35,185,228,14,103,66,15,47,195,183,167,290,60,298,157,164,218,48,22,222,217,213,79,282,251,233,89,161,234,58,25,180,85,102,20,196,29,6,265,1,140,286,272,171,123,165,293,34,97,70,259,27,9,137,275,214,10,115,99,149,71,187,12,221,227,118,258,177,37,250,105,260,296,24,124,83,292,39,150,295,281,146,255,154,231,13,163,192,84,121,90,197,18,158,11,211,31,75,162,242,114,55,127,155,134,148,68,182,78,152,243,61,38,143,181,160,77,106,49,30,200,249,46,285,237,238,270,65,246,299,3,179,241,109,16,252,170,126,136,130,129,216,194,219,2,151,133,112,141,291,244,169,198,248,128,94,201,209,50,257,263,0,101,92,122,95,81,4,245,44,64,268,45,229,91,93,26,215,7,254,96,208,247,147,206,125,276,108,138,62,59,279,144,174,202,80,287,42,175,5,82,17,145]","75","arrowleft","true","5"
"","2376","canvas-keyboard-response","13","61123","0.0-7.0-0.0-0.0"," ","[51,151,228,76,206,200,288,52,188,54,236,11,289,233,214,245,269,90,166,264,91,45,19,117,46,248,154,69,167,186,13,280,205,217,235,99,230,105,237,125,39,274,250,268,64,77,9,179,279,185,261,0,208,59,137,43,112,29,7,176,75,247,8,284,180,281,189,207,199,71,240,104,14,216,18,94,293,157,133,38,226,227,101,170,31,145,258,97,182,161,283,74,263,267,66,85,16,36,292,162,297,164,141,21,17,181,65,116,291,98,148,273,158,83,95,223,290,232,23,221,299,187,257,225,81,202,60,211,251,5,67,256,178,135,41,165,144,159,210,146,201,34,24,278,243,27,102,26,110,62,204,57,33,136,58,259,156,47,191,219,239,246,140,93,88,107,70,149,285,296,3,22,277,171,142,209,218,262,139,79,44,82,275,249,130,229,266,173,106,37,111,286,222,86,132,32,253,131,48,72,254,192,212,63,193,242,215,174,238,119,15,114,177,152,25,103,78,224,84,55,172,20,115,196,175,234,184,270,134,4,271,53,50,169,10,109,113,282,168,100,124,127,194,265,56,244,295,1,118,73,123,87,252,298,183,138,220,28,160,126,40,2,122,197,92,108,231,213,61,42,96,120,195,276,294,153,190,147,203,128,255,6,89,80,49,163,260,155,68,287,30,35,143,12,129,150,121,198,241,272]","70","arrowright","","6"
"","989","canvas-keyboard-response","14","64089","0.0-7.1-0.1-0.1"," ","[283,262,193,271,71,81,139,88,291,12,224,141,282,145,229,89,58,86,190,240,23,39,80,297,166,137,213,64,46,65,8,112,7,189,36,255,199,225,73,210,105,113,120,232,164,194,287,21,211,250,67,106,32,294,263,292,290,202,286,51,288,119,182,269,97,152,235,254,281,157,0,155,132,259,123,275,147,110,230,84,133,54,273,268,129,56,121,209,77,280,70,173,221,181,215,264,205,29,276,144,197,79,15,149,35,44,220,257,134,100,6,101,186,140,272,238,261,150,165,179,136,234,68,75,256,206,1,92,95,3,299,163,135,177,196,78,218,109,248,237,103,19,52,93,66,208,167,176,153,270,278,295,34,83,114,296,207,90,142,102,169,5,159,87,161,239,22,63,25,72,16,30,242,191,26,104,162,214,118,198,143,217,98,151,122,13,146,60,245,219,53,293,108,249,14,138,231,178,94,247,43,172,222,69,195,11,55,42,156,117,82,125,277,2,212,17,59,201,203,48,76,38,116,228,227,200,187,115,216,27,107,223,279,185,99,31,243,251,47,148,241,130,192,74,96,188,33,41,289,57,127,184,9,124,253,45,298,158,18,233,285,168,266,183,50,62,274,170,131,20,37,61,174,204,252,28,49,236,111,244,180,171,160,24,40,226,246,126,85,154,175,10,128,265,260,267,258,4,91,284]","70","arrowright","","6"
"","4791","canvas-keyboard-response","15","73685","0.0-7.2-0.2-0.2","arrowright","[120,236,233,131,118,198,299,271,154,93,262,246,141,91,71,298,250,28,9,17,38,281,181,123,235,149,122,162,213,51,161,86,80,144,1,180,96,278,45,273,94,44,16,274,88,169,184,81,134,104,261,147,240,201,284,227,293,257,79,109,225,196,89,140,4,260,279,137,10,295,35,31,119,276,129,241,7,127,245,124,221,112,116,97,238,99,115,282,191,228,270,280,72,26,179,267,239,289,136,150,186,106,82,21,247,132,243,25,230,39,287,173,167,182,296,6,206,285,113,290,237,170,277,84,98,199,174,33,208,153,53,297,5,175,41,102,64,160,105,172,50,216,110,48,100,256,222,188,176,193,69,58,42,205,130,24,101,291,195,192,223,66,92,70,60,204,67,117,146,232,164,226,197,143,157,251,8,77,178,252,145,163,36,32,87,275,152,263,126,40,217,30,125,210,158,133,128,156,229,83,207,90,47,13,148,212,266,265,75,190,165,62,52,14,194,151,63,37,255,107,54,3,73,74,2,244,95,55,22,76,272,12,29,187,185,155,171,294,56,15,135,189,258,159,18,0,43,231,177,286,242,68,215,142,288,211,200,108,259,139,203,61,224,218,59,249,168,166,209,111,268,19,57,114,283,264,292,219,234,103,248,23,65,121,49,214,78,202,46,220,138,254,85,11,269,253,34,27,20,183]","70","arrowright","true","6"
"","2430","canvas-keyboard-response","16","77977","0.0-8.0-0.0-0.0"," ","[81,164,85,290,254,198,54,7,132,186,129,192,219,287,177,224,145,225,211,206,101,36,72,253,242,154,10,47,135,9,38,57,60,80,282,131,283,238,39,21,159,133,120,46,181,276,216,212,247,76,96,11,23,48,165,297,203,149,136,73,296,108,171,228,278,6,59,105,115,259,27,196,292,142,202,185,249,29,30,22,215,89,210,66,166,223,56,274,201,241,153,272,168,236,244,275,45,33,51,144,77,214,17,291,67,285,117,151,237,19,163,295,161,103,257,110,279,234,267,74,271,34,188,293,155,178,152,75,86,167,104,230,53,12,50,24,64,240,218,14,106,55,130,261,87,226,197,182,109,298,90,162,217,250,43,141,172,139,294,128,269,246,248,91,63,245,42,184,260,98,251,68,78,281,2,208,97,62,255,191,160,227,119,183,231,213,157,189,286,280,233,273,4,116,31,175,127,156,26,1,49,268,190,147,173,179,79,256,146,32,20,122,15,125,195,174,83,111,52,289,5,114,100,258,205,194,193,82,243,61,265,158,176,266,84,40,204,102,299,229,270,143,121,99,112,235,69,70,187,123,93,35,126,44,180,13,239,148,200,88,207,170,262,28,118,3,25,288,134,252,284,199,221,16,0,18,220,150,137,124,232,41,138,94,58,169,264,222,65,92,37,95,71,277,113,140,209,107,8,263]","65","arrowright","","7"
"","1288","canvas-keyboard-response","17","81487","0.0-8.1-0.1-0.1"," ","[101,286,239,254,200,4,15,104,34,66,291,221,151,100,255,75,127,251,125,175,80,9,257,228,55,253,188,12,120,124,204,152,172,297,160,158,157,234,212,161,166,190,194,37,276,27,224,247,274,202,203,181,6,278,215,184,135,211,183,235,53,107,11,244,90,208,91,281,96,78,180,81,199,118,261,1,156,268,295,178,196,173,110,258,52,97,189,292,191,29,266,99,7,177,169,226,299,86,79,218,31,233,201,117,126,93,279,82,129,105,277,245,289,154,35,148,288,238,219,84,74,271,144,60,25,26,109,149,296,133,62,179,94,95,248,128,119,272,232,262,250,138,16,71,47,57,102,249,88,167,123,186,89,260,170,275,168,159,17,23,171,122,195,114,73,206,246,207,213,19,24,252,137,83,242,3,112,259,273,41,198,51,50,264,63,131,64,87,85,132,294,222,113,153,298,106,285,284,46,33,136,256,223,174,243,214,197,42,2,111,142,217,192,205,40,38,176,150,43,58,231,116,69,282,182,290,287,28,49,164,229,44,56,210,141,103,237,30,241,236,165,67,77,72,5,145,65,45,61,283,265,227,115,163,21,216,68,98,14,269,140,162,139,220,187,59,48,36,70,225,8,0,185,22,76,130,209,293,147,108,267,92,32,230,280,121,13,146,270,18,10,143,20,240,263,39,155,193,54,134]","65","arrowright","","7"
"","1246","canvas-keyboard-response","18","84791","0.0-8.2-0.2-0.2"," ","[296,106,99,202,50,286,25,211,8,83,270,192,150,251,212,247,41,124,227,111,195,149,68,57,297,126,294,65,139,170,242,44,75,64,102,71,233,24,108,209,31,252,22,291,299,264,208,100,177,274,218,261,6,84,42,237,96,162,171,223,167,131,142,235,1,272,82,121,190,81,51,32,115,197,15,153,66,230,151,145,203,127,77,35,284,255,17,193,157,20,175,80,49,271,256,34,254,276,21,47,13,241,273,23,55,56,228,158,93,58,91,178,232,288,36,253,166,259,3,204,88,282,165,129,97,59,155,40,30,105,60,46,101,234,214,250,12,137,143,287,263,136,135,280,79,159,43,29,130,176,224,67,238,19,275,278,258,260,128,109,113,298,112,95,285,70,122,183,144,48,244,181,236,246,38,268,72,123,61,5,191,161,289,221,92,249,114,148,116,225,207,205,189,290,110,107,245,262,187,74,220,215,138,243,120,14,39,198,219,147,265,293,85,188,222,266,141,269,94,11,279,133,53,90,9,89,169,172,146,86,156,78,33,140,281,87,248,213,10,98,164,69,206,103,27,200,179,267,163,52,152,117,73,194,231,18,119,217,240,62,132,180,174,199,76,104,168,226,125,186,201,277,196,28,239,2,4,45,210,216,26,295,283,134,54,7,37,63,16,160,229,118,292,0,257,173,182,184,154,185]","65","arrowright","","7"
"","2606","canvas-keyboard-response","19","90072","0.0-8.3-0.3-0.3","arrowright","[45,284,111,102,53,73,264,266,33,166,56,114,122,269,58,211,218,47,144,88,256,121,151,263,160,243,167,131,138,234,71,181,68,112,225,26,179,13,297,283,72,41,119,154,24,241,145,294,290,103,257,249,222,237,132,146,282,176,54,133,18,278,81,180,220,11,205,172,173,268,62,187,279,113,65,186,215,210,244,19,110,235,194,150,1,198,61,20,153,233,247,40,29,91,22,43,14,272,204,8,261,3,217,42,291,51,142,185,163,123,201,298,224,242,104,69,30,83,260,248,165,240,254,280,239,281,158,221,229,96,108,25,128,236,135,276,200,75,157,293,227,159,143,156,16,258,37,126,265,137,52,125,130,295,76,174,286,288,253,147,238,223,267,192,250,34,99,70,232,7,228,171,139,202,134,48,170,101,182,0,31,141,23,206,44,216,189,21,271,195,85,38,292,246,36,84,140,214,274,184,168,12,78,196,6,124,175,94,136,64,161,57,92,262,231,287,60,28,46,97,32,193,115,55,277,80,178,162,27,4,252,212,95,164,67,169,118,226,190,155,49,285,213,79,299,120,66,77,148,296,177,9,10,199,17,74,203,208,86,2,275,107,188,219,129,39,63,230,90,117,245,289,105,109,98,89,251,152,50,259,191,116,273,149,100,35,5,87,59,93,106,82,15,270,183,127,197,207,209,255]","65","arrowright","true","7"
"","1494","canvas-keyboard-response","20","93429","0.0-9.0-0.0-0.0"," ","[196,182,272,284,91,248,61,242,72,17,223,28,29,291,103,101,76,174,161,257,70,34,293,80,207,221,229,209,16,280,138,165,254,245,240,166,294,112,191,181,154,105,263,15,111,114,193,109,261,71,63,41,167,219,75,45,135,212,190,123,296,13,102,247,130,145,211,243,54,27,163,39,23,87,256,97,133,265,228,180,104,271,88,273,286,158,227,279,255,150,173,198,217,226,275,115,268,94,65,46,86,18,274,53,218,132,113,82,77,136,177,116,58,19,89,164,85,258,277,141,222,10,157,48,259,21,125,244,84,32,33,225,151,230,127,201,239,213,236,235,155,249,152,176,14,168,295,216,73,195,55,276,146,278,188,124,8,156,47,231,224,250,121,139,37,232,69,107,51,4,241,6,175,44,208,172,187,56,0,220,282,194,200,2,289,267,178,288,131,184,74,92,40,199,68,98,93,189,202,79,143,299,20,169,60,206,81,204,153,122,281,252,100,159,179,64,5,287,119,42,7,253,214,144,57,297,270,49,262,83,292,12,31,110,171,185,197,9,78,298,129,203,108,95,52,142,251,50,260,170,160,3,120,43,162,264,186,118,26,106,246,285,210,117,147,205,67,126,99,140,22,283,59,96,38,24,30,149,269,35,290,128,238,266,25,137,148,134,11,90,215,66,237,233,1,62,192,36,234,183]","60","arrowright","","8"
"","818","canvas-keyboard-response","21","96349","0.0-9.1-0.1-0.1"," ","[189,66,128,78,260,230,41,23,142,43,143,0,125,275,17,297,271,136,264,21,35,232,165,113,228,291,59,86,68,149,94,174,225,285,111,38,295,298,7,259,288,231,124,212,9,22,29,24,16,229,51,132,296,235,83,158,49,82,87,56,169,195,58,217,281,284,45,255,155,199,256,126,8,162,254,168,20,150,72,220,218,215,65,100,99,283,253,129,120,73,278,50,269,239,141,48,241,242,127,62,184,95,154,299,146,151,63,147,290,293,101,108,71,171,206,75,208,261,245,44,91,135,69,272,179,238,246,121,185,3,148,163,32,173,107,221,186,279,115,30,39,183,274,201,119,52,190,289,247,112,159,213,216,47,5,84,18,118,160,257,153,40,104,178,204,77,53,161,207,209,223,33,268,13,193,170,197,200,198,226,81,105,27,144,139,122,202,145,10,177,1,28,248,106,55,265,292,277,194,110,270,79,224,102,180,227,14,152,19,4,286,140,249,211,164,15,96,12,76,6,80,258,294,187,240,267,191,89,181,287,252,67,166,156,31,97,250,236,131,282,90,103,134,251,234,172,92,137,196,203,74,243,98,114,34,157,205,244,222,276,167,214,60,273,25,262,64,85,70,37,54,176,138,133,266,280,219,2,93,26,182,88,237,192,175,42,116,123,117,61,233,36,188,57,109,11,46,210,263,130]","60","arrowright","","8"
"","1823","canvas-keyboard-response","22","100820","0.0-9.2-0.2-0.2"," ","[55,201,4,199,279,243,174,299,124,31,131,197,205,298,24,261,262,89,78,244,147,107,223,157,251,288,118,252,105,99,48,76,203,294,166,111,132,64,160,94,196,72,135,192,253,218,100,17,32,229,82,241,22,280,240,173,115,278,221,65,233,281,128,204,106,29,7,180,139,291,6,83,276,286,126,169,265,272,268,148,277,177,116,267,191,285,46,209,195,175,246,207,58,44,155,274,179,133,188,208,239,271,242,222,159,13,114,70,213,50,224,5,123,86,26,10,230,57,158,68,263,129,178,28,130,140,176,81,231,51,259,165,162,33,138,84,120,121,8,145,255,127,69,249,186,53,66,264,39,234,146,202,182,216,49,85,2,117,256,275,167,20,80,137,73,289,258,257,60,36,296,297,168,125,67,19,37,1,141,217,214,113,184,228,45,248,151,87,103,3,41,79,185,237,215,227,56,211,11,287,0,270,181,16,156,14,295,54,27,170,62,283,42,290,18,92,152,225,238,77,143,43,284,61,101,247,193,142,153,47,9,52,200,30,90,220,260,119,136,15,293,172,236,245,194,97,74,108,104,190,226,59,206,122,250,12,21,112,38,154,219,134,98,75,282,88,40,71,91,95,25,34,102,212,198,183,232,63,187,23,292,35,163,210,235,189,161,266,164,110,269,109,254,273,93,96,171,144,149,150]","60","arrowright","","8"
"","3510","canvas-keyboard-response","23","106365","0.0-9.3-0.3-0.3","arrowleft","[38,241,55,150,109,257,130,258,246,84,260,2,199,79,261,29,20,283,245,154,160,35,195,34,173,274,122,54,15,1,92,265,218,81,161,66,5,288,149,271,121,64,142,102,71,110,120,236,280,224,147,57,264,174,266,59,286,220,290,0,197,93,33,91,243,254,125,49,136,244,77,178,170,50,26,7,183,106,152,18,94,239,86,187,100,222,282,27,248,181,216,44,269,276,78,76,196,251,111,143,67,163,138,134,180,209,167,151,296,227,39,9,98,231,228,186,62,36,219,166,63,232,278,129,116,182,249,156,168,53,202,113,210,131,298,162,230,242,176,144,99,200,287,133,285,90,45,61,75,37,225,117,30,267,97,41,58,46,108,3,69,250,123,171,259,235,204,23,153,31,189,17,8,284,115,211,256,226,42,70,73,198,25,157,118,96,19,22,234,184,169,128,85,238,13,291,60,208,101,177,175,221,137,6,112,193,192,281,179,212,292,217,12,80,270,28,247,252,4,214,201,11,104,68,205,185,268,277,191,223,299,194,124,158,88,87,255,262,72,293,40,233,240,215,103,164,43,139,229,155,56,188,146,52,83,159,82,95,107,140,21,126,295,172,297,114,32,165,132,16,272,135,47,203,237,48,294,74,213,207,119,24,145,141,65,127,206,263,148,275,289,51,10,279,190,253,105,273,14,89]","60","arrowright","false","8"
"","2185","canvas-keyboard-response","24","110399","0.0-10.0-0.0-0.0"," ","[5,30,186,201,160,185,61,34,89,46,273,286,42,68,207,0,59,199,196,266,241,268,232,212,119,198,254,93,290,22,97,103,128,211,278,124,63,210,216,269,239,91,9,252,276,62,12,173,219,255,67,140,102,226,75,121,123,84,161,184,258,129,291,244,256,19,122,15,267,21,250,182,144,170,154,187,249,72,54,200,284,105,156,227,57,45,166,230,65,247,13,297,260,130,55,16,261,138,143,181,49,265,183,52,163,101,112,158,136,69,189,242,293,56,83,243,204,25,296,191,193,220,263,145,51,272,1,133,289,2,109,195,17,299,294,58,179,283,41,125,151,32,298,107,100,66,127,6,168,111,117,280,190,203,177,37,164,205,270,71,237,295,142,38,223,137,159,194,85,99,165,77,88,4,35,157,11,147,146,78,82,44,60,141,28,92,279,64,90,53,222,162,152,275,3,225,116,80,178,95,218,221,94,87,233,176,47,33,292,134,197,234,282,26,188,135,126,104,24,153,139,262,106,74,14,206,150,118,172,20,114,76,246,171,215,48,169,281,10,113,288,148,257,155,214,36,192,27,23,81,108,86,274,217,236,240,180,248,259,231,277,287,98,70,271,224,228,73,96,202,8,285,264,175,213,18,229,251,120,29,43,110,245,31,238,7,50,131,167,235,208,40,115,79,149,209,132,253,39,174]","55","arrowright","","9"
"","939","canvas-keyboard-response","25","113193","0.0-10.1-0.1-0.1"," ","[47,4,288,218,7,17,123,231,259,289,108,294,43,297,26,262,38,139,75,52,252,260,109,72,119,217,235,174,42,250,153,239,133,281,19,245,277,46,254,37,126,241,264,84,226,66,283,82,13,94,210,34,271,186,145,225,280,183,50,189,25,169,244,56,212,15,63,81,76,163,29,206,193,215,204,110,197,99,36,199,279,74,79,125,14,171,12,41,49,57,228,209,203,152,128,165,87,120,131,191,117,105,201,92,188,177,293,180,141,140,53,270,214,187,285,158,229,248,21,208,282,256,89,95,144,132,59,164,20,80,134,58,257,3,159,150,195,268,136,267,278,90,179,255,11,6,135,213,91,113,200,10,243,107,102,295,2,220,181,9,175,284,275,101,61,182,198,71,112,216,51,162,65,263,35,237,242,273,33,147,106,236,8,287,40,292,1,172,170,100,122,97,142,54,178,219,73,249,96,276,222,227,296,115,196,232,64,18,221,173,124,261,290,286,155,207,265,253,238,185,118,130,299,78,224,98,138,157,129,184,266,202,211,223,205,103,298,27,111,93,272,0,192,16,291,156,149,70,167,146,151,274,233,68,176,44,269,39,247,45,77,246,116,5,161,30,190,48,230,67,234,32,55,194,143,31,60,168,69,22,127,160,85,251,166,28,83,148,86,258,88,104,137,114,121,154,240,24,62,23]","55","arrowright","","9"
"","783","canvas-keyboard-response","26","115931","0.0-10.2-0.2-0.2"," ","[63,159,254,272,118,92,241,12,29,259,86,190,171,146,126,151,207,112,245,236,193,251,223,286,41,281,284,18,172,73,52,56,105,20,270,295,258,226,140,169,266,6,143,5,157,34,292,85,30,78,280,38,255,128,188,13,204,114,163,278,215,134,82,93,216,252,238,264,181,49,205,71,228,125,27,141,231,230,100,182,167,299,83,263,40,97,247,62,119,221,233,132,244,180,24,173,103,54,271,166,297,176,11,200,104,25,149,8,15,164,192,256,283,262,57,148,7,253,208,276,110,147,59,235,14,53,101,117,44,168,31,214,113,246,36,66,249,33,170,94,135,187,220,84,42,69,95,124,130,289,19,107,274,138,91,290,127,291,4,21,186,265,269,287,89,144,196,184,35,75,17,142,268,76,209,285,61,120,185,248,199,150,178,26,237,296,260,43,79,211,115,155,10,198,106,293,267,96,111,60,224,277,202,162,16,121,122,294,156,22,98,9,206,28,217,136,109,222,139,225,58,65,3,240,51,250,70,201,81,154,218,183,257,174,0,282,131,242,191,47,37,189,64,123,194,32,2,68,227,232,116,145,45,179,88,229,288,273,137,77,80,1,261,195,67,50,87,153,46,129,212,243,74,175,55,133,90,219,275,152,298,234,210,39,108,213,160,203,102,72,161,99,197,23,177,158,48,279,165,239]","55","arrowright","","9"
"","1096","canvas-keyboard-response","27","119278","0.0-10.3-0.3-0.3"," ","[2,152,35,220,107,24,221,0,213,256,206,141,143,54,60,17,131,119,187,165,32,151,102,55,223,132,126,34,3,178,11,239,184,183,124,89,67,180,159,20,148,199,41,94,281,246,294,224,153,5,258,230,277,162,13,76,257,200,62,58,18,189,43,134,25,234,48,176,71,149,227,95,133,204,150,108,247,1,265,260,202,211,106,175,111,83,195,191,270,78,255,288,237,169,250,218,85,163,232,130,9,50,279,104,215,64,45,122,40,14,229,289,65,19,129,219,158,282,99,75,185,161,201,166,253,264,160,210,263,59,299,275,61,63,26,15,170,117,28,188,242,33,244,212,271,44,174,205,121,103,284,113,228,208,68,164,181,280,128,173,98,146,139,39,31,8,217,254,127,97,266,193,155,203,135,207,37,156,285,7,269,87,120,290,196,90,295,248,96,293,109,238,56,82,118,268,47,142,222,138,186,283,91,69,80,123,88,182,190,12,292,197,51,251,77,42,192,105,100,241,112,27,81,6,144,110,57,274,157,272,273,21,172,231,36,29,92,140,214,79,23,249,93,167,115,261,209,243,267,291,287,147,286,16,72,52,46,70,38,49,296,235,74,297,225,171,154,259,53,30,236,177,216,226,137,66,245,276,168,252,194,262,73,179,136,278,4,125,145,233,22,114,116,10,240,198,84,298,86,101]","55","arrowright","","9"
"","819","canvas-keyboard-response","28","122568","0.0-10.4-0.4-0.4","arrowright","[278,265,64,174,153,61,212,159,156,136,161,12,243,189,206,5,183,115,168,288,19,86,180,81,266,264,40,43,79,152,248,207,16,125,283,85,179,178,11,280,8,53,48,122,94,187,39,126,124,215,252,67,65,33,209,144,155,10,272,223,62,202,145,98,295,76,200,226,51,101,242,275,63,244,227,279,285,97,246,299,70,186,37,213,104,268,120,233,14,274,30,107,204,216,28,222,109,106,160,118,3,219,80,119,253,154,114,237,141,21,169,69,50,103,75,277,163,194,78,261,157,139,26,32,108,9,88,175,259,0,123,171,42,137,192,181,238,1,20,68,25,185,203,87,22,71,176,130,162,34,167,35,271,166,138,142,121,6,270,220,49,29,100,247,193,52,172,273,236,140,234,74,286,173,134,2,225,262,59,58,102,46,73,241,92,281,296,96,91,287,95,117,89,24,284,165,27,147,93,132,256,282,198,83,38,289,294,184,127,276,267,72,13,170,60,128,41,148,143,47,269,211,17,99,228,254,191,129,182,77,224,221,201,293,45,290,218,291,57,217,55,250,116,44,31,229,190,188,7,257,110,263,258,133,260,297,131,249,111,149,146,197,240,135,54,177,210,90,214,23,84,4,15,196,56,18,199,164,298,208,245,82,235,251,150,112,231,113,105,66,232,292,36,205,255,195,239,230,158,151]","55","arrowright","true","9"
"","2779","canvas-keyboard-response","29","128590","0.0-11.0-0.0-0.0"," ","[60,135,253,215,17,177,162,234,270,161,245,33,193,223,211,186,127,204,271,175,217,164,63,222,168,205,85,293,113,243,83,28,31,165,51,120,26,16,244,87,264,19,73,284,55,249,235,153,0,297,118,122,191,291,192,72,38,267,272,29,176,233,173,140,82,144,21,76,11,219,230,148,195,147,117,93,43,111,79,44,188,23,273,145,40,174,1,66,106,155,133,275,247,105,109,56,5,132,3,263,78,269,12,206,100,37,101,65,42,58,138,212,295,128,104,18,196,70,27,126,231,47,86,202,189,15,149,91,154,229,136,218,232,159,220,241,110,115,39,41,268,62,236,80,131,129,157,225,142,137,123,57,125,166,209,240,277,265,283,172,280,9,201,112,227,52,254,260,94,67,30,141,97,50,160,208,185,213,88,4,237,261,292,170,239,286,75,156,171,84,250,228,90,146,69,116,7,99,74,53,92,255,25,22,35,221,256,200,134,285,6,167,36,216,169,152,124,194,150,77,257,203,251,198,59,64,210,178,10,121,89,2,258,143,130,151,288,81,184,139,179,180,68,182,103,197,294,287,199,95,96,32,8,299,298,20,14,246,207,296,183,13,279,46,108,224,34,24,61,114,214,119,190,48,71,102,274,252,107,289,54,278,282,226,281,163,181,259,158,45,98,242,262,238,49,248,290,266,276,187]","50","arrowright","","10"
"","2923","canvas-keyboard-response","30","135294","0.0-11.1-0.1-0.1","arrowleft","[69,83,127,52,276,235,207,131,188,19,171,103,76,112,105,65,158,101,147,137,155,291,107,150,43,119,21,170,7,157,61,200,32,274,253,205,96,252,146,270,295,130,24,71,247,67,225,70,226,174,68,165,162,249,55,238,49,12,106,193,260,271,109,72,85,218,208,217,179,29,99,53,262,229,236,151,128,39,195,184,47,138,54,143,254,169,256,114,81,189,214,251,50,74,164,216,37,156,27,8,212,2,111,278,288,242,116,73,63,22,136,264,120,172,5,9,14,175,132,141,41,113,224,31,198,40,45,163,80,265,166,4,98,16,11,273,210,134,299,135,185,51,298,62,44,64,250,266,211,34,215,263,91,60,36,182,87,227,246,177,232,122,153,139,6,183,243,181,126,239,284,102,223,202,82,148,57,117,180,20,282,277,66,230,93,38,0,13,94,255,25,160,258,248,296,159,144,281,142,173,129,197,115,30,290,272,58,228,286,23,86,201,92,3,100,209,190,48,78,149,178,176,108,191,77,75,289,168,244,90,1,79,187,285,35,213,140,259,206,204,196,124,121,123,192,125,220,15,268,222,46,280,97,241,237,292,26,269,245,257,203,42,152,154,17,110,89,267,294,219,59,275,283,95,186,297,221,118,231,104,287,133,145,88,240,293,279,234,33,199,10,56,233,18,161,194,28,261,84,167]","50","arrowright","false","10"
"","1763","canvas-keyboard-response","31","139746","0.0-12.0-0.0-0.0","arrowright","[92,148,114,151,40,77,204,74,110,262,180,123,48,228,29,156,247,19,98,97,122,139,140,18,99,261,259,125,137,194,1,158,130,90,67,112,187,275,61,116,277,230,8,226,193,198,96,278,166,143,154,169,52,44,62,248,289,179,20,216,108,197,165,66,12,203,21,51,239,285,32,135,76,2,167,229,25,153,16,199,146,17,283,191,39,10,0,86,276,83,273,64,227,104,56,246,231,240,65,286,292,79,36,271,242,188,178,251,73,298,174,129,82,24,234,102,265,147,34,3,232,189,33,101,160,41,237,38,152,236,253,93,11,266,105,219,249,212,200,141,284,14,172,161,69,223,233,45,95,217,63,296,6,107,171,297,295,258,88,241,78,46,35,26,142,201,118,173,126,176,252,269,267,131,177,238,272,164,235,81,184,244,207,23,220,218,28,255,30,214,281,84,254,49,106,87,183,163,210,37,288,13,155,120,85,293,121,43,294,5,175,53,117,4,206,250,55,31,186,109,185,68,222,190,58,133,138,136,287,15,279,89,192,134,119,170,221,208,181,260,80,27,195,22,42,113,7,224,213,71,209,202,132,168,270,225,9,145,299,243,100,59,144,257,162,205,124,280,157,70,103,290,245,75,282,196,128,291,274,60,149,159,263,215,127,50,57,268,115,111,54,211,150,182,94,47,264,91,72,256]","45","arrowright","true","11"
"","2674","canvas-keyboard-response","32","144705","0.0-13.0-0.0-0.0","arrowleft","[96,69,200,46,261,225,9,133,137,95,148,74,203,106,53,12,114,156,224,80,90,177,123,101,154,71,7,171,54,216,21,180,204,68,169,30,164,77,43,237,57,248,87,42,29,185,267,282,145,20,252,37,149,241,288,165,34,85,13,24,186,260,56,113,61,243,119,40,196,179,209,240,273,205,130,208,47,285,11,286,132,198,289,51,299,126,15,8,201,44,161,277,67,76,0,72,84,172,23,88,78,63,1,210,45,100,176,99,250,275,117,52,222,143,249,278,254,255,2,294,158,104,105,112,253,19,214,231,220,173,162,32,283,262,211,191,207,83,62,223,199,266,292,157,58,227,70,41,79,59,251,28,281,36,239,92,190,120,25,298,140,17,107,38,10,98,263,188,6,60,89,66,167,272,18,115,245,268,247,50,187,215,236,269,108,159,146,134,230,284,152,160,73,235,103,127,35,258,287,155,293,82,182,238,213,48,271,256,264,110,81,202,181,109,118,33,226,124,175,276,97,212,166,178,195,193,170,295,128,194,142,184,135,174,102,138,4,151,233,217,125,219,65,147,234,141,270,64,121,297,280,296,153,94,27,22,183,246,279,168,39,259,192,257,242,75,26,206,218,31,197,150,122,189,136,86,14,265,290,131,49,291,139,3,228,116,93,16,111,221,244,55,163,5,144,229,91,274,129,232]","40","arrowleft","true","12"
"","1883","canvas-keyboard-response","33","148538","0.0-14.0-0.0-0.0"," ","[46,2,259,166,247,62,78,23,297,248,54,111,192,236,128,42,127,149,14,87,178,278,117,271,100,122,184,274,229,176,224,71,145,116,289,82,55,265,105,159,85,246,257,208,140,170,69,119,49,141,163,189,18,203,221,219,190,260,59,282,68,284,4,84,177,61,123,249,195,225,21,280,165,207,263,57,223,51,279,47,126,27,235,108,232,290,113,12,131,242,125,142,15,198,209,182,272,102,211,20,91,188,181,160,151,228,129,291,299,81,154,98,175,36,103,237,58,88,238,162,97,8,270,295,226,250,44,28,89,222,11,277,109,245,41,173,3,256,30,196,50,75,64,83,135,7,120,293,161,287,115,150,264,112,200,258,139,63,118,266,76,104,288,114,296,185,19,52,138,227,298,158,96,179,43,13,254,255,147,95,26,70,197,107,79,294,124,134,186,34,220,56,60,73,31,16,230,187,194,201,172,1,273,72,276,24,137,156,133,152,240,243,234,144,212,268,80,157,94,9,106,217,281,239,92,285,38,143,77,67,205,214,215,101,283,93,275,244,155,218,121,148,180,45,253,193,17,216,66,99,39,35,5,29,174,153,146,262,6,251,10,37,183,269,204,252,213,86,267,53,210,33,25,292,191,241,167,40,32,233,206,130,286,261,110,231,0,168,65,169,22,74,199,171,202,48,90,164,136,132]","35","arrowleft","","13"
"","1936","canvas-keyboard-response","34","152424","0.0-14.1-0.1-0.1"," ","[233,177,277,20,229,165,141,22,215,74,260,184,123,84,276,64,11,89,127,140,98,284,36,217,10,67,92,173,107,62,213,8,249,200,152,258,220,209,43,119,91,282,66,211,248,214,283,78,231,202,278,35,124,72,239,6,68,158,23,138,164,15,114,130,149,142,77,163,243,206,136,216,65,42,185,21,19,154,105,191,87,254,48,166,120,128,106,196,244,148,159,274,226,26,145,59,83,4,268,151,286,292,33,131,280,45,58,49,1,24,95,157,147,93,71,190,52,199,109,88,132,167,221,181,237,265,256,50,291,245,18,212,287,28,96,264,25,60,61,259,271,252,193,195,246,103,76,230,242,203,126,73,13,85,179,5,57,53,82,94,296,299,201,218,176,269,144,150,39,133,69,224,63,29,225,3,47,208,16,238,146,40,205,155,37,275,172,188,108,2,125,180,14,186,7,9,30,17,197,288,0,135,170,101,272,41,160,54,257,207,253,298,97,183,174,137,227,32,38,289,12,210,189,111,115,156,198,86,112,55,240,232,51,266,247,143,187,194,290,113,118,293,228,102,75,110,236,204,104,235,80,56,273,295,121,161,182,79,171,262,117,90,175,255,139,241,44,285,267,192,70,219,294,297,281,46,270,261,263,27,169,162,251,222,100,234,116,178,153,99,34,134,129,81,168,279,122,250,223,31]","35","arrowleft","","13"
"","1237","canvas-keyboard-response","35","155581","0.0-14.2-0.2-0.2","arrowleft","[7,221,291,256,42,75,116,172,189,98,194,44,34,51,295,63,168,260,133,43,252,128,152,156,187,193,279,259,8,225,16,65,280,17,171,87,134,47,132,272,277,55,33,267,62,185,161,126,118,287,79,57,169,254,124,64,85,54,239,67,97,243,49,27,70,208,5,46,182,278,201,32,238,13,281,4,191,251,83,145,37,241,237,143,217,96,117,181,165,170,142,139,248,205,26,89,138,246,212,218,162,293,268,39,121,14,114,29,15,101,177,290,125,86,109,223,265,264,146,24,215,103,240,195,60,266,50,247,157,149,289,184,80,23,61,286,180,38,21,88,120,269,275,257,250,48,292,298,213,72,159,135,167,273,179,100,12,102,150,155,148,56,164,178,69,84,196,160,230,255,276,71,154,183,294,77,107,175,202,190,119,244,271,35,231,92,40,18,176,245,105,140,59,123,25,203,285,233,211,258,45,188,232,216,11,214,104,53,283,192,94,1,235,78,111,93,122,36,68,219,166,234,115,22,197,144,76,198,229,41,173,220,81,129,52,200,228,262,28,0,242,112,19,66,141,296,3,207,110,136,9,151,90,186,95,158,113,227,91,261,73,274,236,253,299,153,263,210,31,2,199,137,20,284,209,270,131,224,282,6,249,222,99,127,147,288,297,106,174,58,226,82,163,10,206,130,204,74,108,30]","35","arrowleft","true","13"
"","1708","canvas-keyboard-response","36","159682","0.0-15.0-0.0-0.0"," ","[186,57,76,284,159,21,264,233,152,14,133,72,194,52,83,252,143,106,47,121,0,7,87,25,13,149,248,171,289,90,287,274,128,42,127,270,237,280,220,49,60,151,275,112,50,164,104,107,177,135,212,281,148,208,6,185,55,15,43,278,40,71,291,3,267,192,66,89,145,27,51,61,182,163,23,175,259,214,34,118,253,33,242,238,241,272,277,85,17,19,98,162,46,232,190,22,294,141,126,240,73,155,16,299,266,8,129,293,103,243,88,219,131,111,74,187,198,239,279,210,230,67,82,12,283,110,11,123,95,246,191,207,31,292,290,286,221,209,235,147,285,138,231,260,254,225,2,39,44,269,63,205,79,271,273,295,77,35,165,139,58,70,197,201,114,183,86,282,174,78,84,245,37,199,173,119,169,218,93,249,142,157,59,258,28,256,223,226,24,200,178,160,228,5,247,48,69,257,181,262,153,140,216,132,255,137,261,20,150,54,234,154,9,81,29,244,99,250,122,130,215,217,120,193,211,184,117,10,125,206,265,53,80,156,144,75,276,38,288,296,45,65,161,115,68,64,56,188,251,102,4,268,96,179,100,158,227,113,224,97,18,236,92,108,105,91,204,202,116,263,36,1,134,32,180,213,30,189,176,94,203,297,109,195,196,222,166,172,101,62,170,41,146,167,168,136,298,124,26,229]","30","arrowright","","14"
"","291","canvas-keyboard-response","37","162573","0.0-15.1-0.1-0.1"," ","[143,231,252,234,125,149,109,105,243,285,200,34,140,206,218,56,61,40,122,217,270,129,282,91,57,33,178,183,32,18,230,164,296,158,48,198,146,2,226,137,31,191,117,54,71,240,274,190,251,148,89,249,42,44,79,106,37,233,81,60,242,239,77,196,15,107,102,85,142,19,273,10,47,237,298,244,139,253,64,69,271,184,276,120,74,115,20,225,157,50,27,279,28,52,116,96,257,67,169,265,134,166,207,14,39,245,118,24,208,259,250,174,147,188,0,83,223,121,289,167,266,275,179,13,1,5,80,269,7,29,177,26,11,254,38,219,175,214,110,258,101,21,213,46,238,278,235,65,53,205,114,70,153,155,222,221,228,16,260,173,84,286,295,103,3,194,263,291,281,193,262,133,161,51,185,98,197,241,180,45,30,78,246,76,123,195,138,264,124,284,136,267,247,189,232,73,12,131,211,220,186,86,199,108,58,119,283,59,88,55,17,277,212,82,224,202,156,294,144,41,36,287,165,292,261,126,204,87,22,163,145,290,154,104,172,280,23,209,151,236,99,35,256,159,216,255,4,113,6,227,150,72,268,201,182,25,210,152,63,130,272,93,135,297,92,111,170,176,203,9,68,248,168,8,43,181,132,160,49,95,187,97,127,171,66,229,141,75,299,288,293,100,162,192,128,90,94,62,215,112]","30","arrowright","","14"
"","1068","canvas-keyboard-response","38","166774","0.0-15.2-0.2-0.2"," ","[19,114,189,46,276,42,229,137,131,9,241,76,289,293,135,283,105,45,90,213,26,167,208,97,288,47,243,260,128,104,0,99,94,284,232,77,10,255,36,92,272,220,29,69,156,27,112,286,150,267,68,188,80,61,89,279,249,142,219,190,171,129,269,275,103,60,126,164,35,86,224,110,117,21,96,206,132,25,140,159,226,273,144,186,262,253,173,202,81,183,287,116,187,282,130,216,15,95,274,101,53,34,290,278,48,111,20,176,251,17,5,195,22,56,175,191,1,33,98,280,16,82,93,196,7,193,6,214,180,57,18,270,268,192,160,41,63,40,281,199,122,151,153,100,154,296,113,212,238,221,177,228,295,83,50,244,205,242,13,59,106,234,67,120,66,155,32,178,194,124,52,152,149,166,277,237,8,109,299,91,161,64,292,218,162,118,174,108,245,14,79,259,236,4,38,266,185,72,248,119,230,74,58,125,204,207,200,121,235,31,28,246,75,201,203,169,254,2,115,285,23,227,197,148,217,43,157,49,12,225,73,158,71,85,163,256,134,127,51,172,198,239,136,181,223,165,30,11,145,250,297,298,37,294,209,54,24,141,107,261,231,257,147,146,102,168,215,65,265,84,123,258,210,222,87,271,78,138,264,182,62,133,3,139,247,143,170,240,211,39,88,70,184,291,233,252,55,44,263,179]","30","arrowright","","14"
"","970","canvas-keyboard-response","39","170352","0.0-15.3-0.3-0.3","arrowright","[114,63,35,275,130,244,273,255,37,276,112,280,57,139,262,195,226,122,79,30,52,44,2,13,48,28,3,233,177,197,43,157,124,111,132,135,115,212,61,27,117,50,21,299,15,242,274,106,66,206,252,254,205,116,210,246,100,232,186,164,253,70,119,289,240,150,118,292,87,227,34,279,95,141,181,123,96,221,172,152,137,185,219,90,234,83,269,286,278,237,97,241,20,98,182,282,107,41,250,78,109,184,207,126,155,89,267,151,236,239,40,99,283,291,11,128,179,42,214,188,249,243,215,145,178,12,222,6,257,245,229,32,203,211,296,225,163,154,91,183,93,73,165,174,161,105,146,74,55,290,47,198,14,271,101,72,24,68,9,58,284,147,144,22,220,85,213,1,92,29,0,67,94,33,60,228,80,129,175,173,113,251,136,18,156,159,75,231,264,180,153,266,121,23,31,69,277,191,131,169,110,235,295,196,5,36,167,84,261,8,272,160,170,293,268,298,25,143,26,187,230,263,270,16,125,162,224,65,103,168,297,38,45,149,158,54,288,10,209,142,59,193,265,133,287,256,171,204,176,76,260,294,120,259,51,281,247,102,108,134,19,62,17,88,138,104,201,64,189,166,148,238,258,49,86,202,208,199,71,81,194,82,217,46,140,248,53,223,39,216,200,56,285,7,218,192,77,190,4,127]","30","arrowright","true","14"
"","1990","canvas-keyboard-response","40","174874","0.0-16.0-0.0-0.0","arrowright","[33,123,194,245,14,103,115,102,93,243,218,227,264,151,209,10,31,195,208,142,95,87,206,239,200,122,110,280,121,98,237,35,29,28,125,34,256,49,190,291,226,210,54,4,222,172,135,233,143,36,204,252,43,167,82,129,154,184,212,23,214,128,3,187,25,192,11,40,276,99,12,220,203,149,22,205,254,213,56,221,53,238,1,97,224,100,134,111,259,114,133,76,62,165,173,282,275,162,177,244,109,193,169,60,148,80,130,18,16,161,163,58,146,299,283,293,287,258,19,120,141,7,17,207,294,152,107,147,84,288,27,240,175,70,20,230,174,199,118,39,249,79,92,8,248,78,138,47,72,260,246,96,136,6,164,24,178,183,262,59,197,124,223,235,9,90,144,270,64,66,52,69,156,94,171,153,285,86,51,281,296,168,255,257,219,2,198,26,77,250,104,30,202,272,234,160,181,268,73,216,71,65,289,186,105,46,284,265,67,277,113,290,131,37,269,176,145,273,236,91,286,274,13,68,297,253,140,81,106,74,155,0,5,191,231,38,182,116,215,157,211,251,159,83,295,298,196,112,15,242,63,127,150,57,247,279,88,261,101,179,42,170,21,225,75,132,50,201,185,241,61,166,188,45,108,48,292,217,139,89,44,228,267,85,266,117,278,229,32,119,41,271,232,55,137,263,126,180,158,189]","25","arrowright","true","15"
"","1032","canvas-keyboard-response","41","177939","0.0-17.0-0.0-0.0"," ","[82,242,166,135,291,63,168,249,234,128,201,98,280,91,13,69,252,245,99,277,255,131,237,35,143,192,178,244,48,33,183,36,43,229,23,110,144,289,60,254,44,287,115,20,224,90,294,119,84,94,267,184,266,142,210,127,41,132,216,148,263,102,28,278,55,217,45,106,50,75,200,193,176,288,81,223,261,30,71,105,14,138,6,38,190,86,133,130,117,147,66,268,85,150,61,1,16,9,157,153,173,214,87,51,58,89,160,37,2,212,126,194,56,29,114,248,232,64,269,18,228,17,196,76,256,111,207,227,213,174,253,206,93,109,159,122,205,220,270,298,260,74,172,236,31,165,191,221,257,241,27,4,15,88,101,152,140,264,295,65,292,275,5,100,211,141,185,293,195,92,171,169,296,11,145,203,235,189,47,163,136,272,79,265,118,219,290,226,281,177,199,276,10,285,112,230,24,77,158,107,243,284,188,52,7,104,197,240,156,297,170,222,161,149,225,113,208,12,3,182,121,251,202,167,68,22,67,198,258,0,39,186,233,151,97,274,46,181,282,215,42,273,259,80,59,103,32,62,96,25,125,180,204,123,286,108,250,57,19,8,78,179,155,246,70,137,53,139,72,299,129,154,218,49,26,120,247,238,271,21,162,279,164,262,83,239,134,40,146,124,187,209,231,73,34,175,95,116,283,54]","20","arrowright","","16"
"","737","canvas-keyboard-response","42","181003","0.0-17.1-0.1-0.1"," ","[119,25,123,126,108,146,136,79,221,58,10,127,120,248,99,177,215,49,132,133,167,15,280,20,137,286,50,75,274,26,11,64,164,224,293,85,55,71,194,243,217,145,34,82,268,188,158,84,46,236,181,135,83,103,229,299,266,21,48,156,282,40,56,273,190,216,105,184,189,174,142,163,61,38,19,4,78,220,86,233,44,187,262,74,100,81,234,261,257,14,69,43,265,77,149,70,249,283,27,246,104,193,201,200,162,143,160,198,173,226,115,202,176,245,121,267,170,210,140,23,254,239,155,227,16,2,161,134,169,238,258,250,159,33,223,171,63,253,144,157,122,260,269,116,150,59,232,18,97,275,205,180,89,288,73,80,240,110,94,186,213,125,219,207,76,271,141,228,102,118,294,101,66,251,124,8,113,17,172,295,9,165,281,152,53,241,214,289,199,47,7,87,264,191,42,67,24,222,51,147,297,98,148,183,206,211,208,153,290,106,93,279,204,130,107,72,62,6,111,31,138,131,128,287,90,231,209,68,256,284,218,285,1,203,57,36,29,259,276,291,242,244,60,30,255,278,32,96,12,117,166,37,0,263,22,65,13,45,247,52,185,230,292,212,237,112,235,39,168,298,182,3,175,54,5,139,129,225,272,296,196,41,195,179,35,28,92,151,114,95,109,154,91,88,252,270,178,197,192,277]","20","arrowright","","16"
"","677","canvas-keyboard-response","43","184127","0.0-17.2-0.2-0.2","arrowleft","[119,222,85,262,75,290,226,66,32,153,63,204,298,127,218,183,253,44,84,155,232,273,276,39,108,192,296,8,77,53,64,88,16,96,94,219,166,72,69,102,54,217,177,68,246,252,38,23,199,111,83,145,126,78,263,27,234,224,182,221,264,205,209,29,148,18,46,282,165,194,160,250,225,103,25,156,292,129,115,195,101,142,33,279,167,170,254,34,294,157,10,208,215,171,86,131,121,118,31,271,260,207,235,261,140,247,128,198,245,174,259,212,154,67,143,213,133,295,21,180,134,52,269,178,203,244,277,185,130,161,152,122,188,230,266,258,58,210,162,89,56,168,26,80,293,179,240,172,14,4,116,37,275,272,112,281,251,93,110,125,100,201,6,299,40,19,284,228,197,60,239,7,135,220,280,97,202,200,206,289,186,287,229,20,288,164,47,191,132,41,150,231,5,90,55,181,87,236,158,105,137,189,214,113,216,2,45,144,98,286,42,297,104,71,0,242,124,13,30,79,237,248,238,173,3,285,176,270,57,92,149,233,59,17,190,256,61,62,24,227,184,114,70,74,283,120,106,65,141,99,73,9,12,49,51,109,223,196,175,211,91,265,28,76,123,35,36,169,278,267,249,159,187,11,241,243,274,147,151,15,163,139,82,81,138,268,146,22,255,117,136,50,257,43,95,48,193,107,1,291]","20","arrowright","false","16"
"","1502","canvas-keyboard-response","44","188199","0.0-18.0-0.0-0.0","arrowright","[105,185,18,162,4,133,281,180,205,82,277,235,49,46,120,95,84,57,34,5,128,221,132,41,113,242,25,150,178,172,138,233,62,293,131,253,200,255,35,261,217,224,42,246,109,243,199,225,77,276,101,279,251,29,54,168,1,52,256,153,204,144,33,7,61,136,297,193,107,85,214,89,170,176,127,17,74,171,47,156,267,227,115,269,258,241,63,159,270,207,212,110,112,187,268,39,196,43,198,103,59,189,8,166,28,93,292,79,14,223,289,129,12,123,31,106,140,165,66,229,174,125,192,175,114,183,2,195,135,154,164,37,65,239,181,194,190,22,177,271,3,286,81,9,210,24,298,145,108,87,160,98,104,167,237,220,247,231,130,252,51,232,118,44,64,234,260,265,147,116,275,182,263,163,40,291,122,226,48,99,90,23,50,155,218,264,80,92,257,211,148,202,143,254,38,60,139,124,36,126,236,91,32,83,208,142,222,266,285,216,259,274,273,6,68,94,20,161,0,86,230,284,96,179,11,71,56,188,73,191,158,75,152,141,296,13,69,219,244,213,15,262,16,70,121,294,186,288,157,209,119,134,100,67,88,240,248,21,58,53,280,290,149,146,76,238,272,169,30,102,295,203,283,26,215,245,78,197,173,111,287,137,97,282,10,299,228,117,206,249,278,151,27,55,19,184,72,201,45,250]","15","arrowleft","false","17"
"","2025","canvas-keyboard-response","45","192371","0.0-19.0-0.0-0.0"," ","[59,188,16,235,5,109,237,159,207,51,164,124,178,238,89,291,105,4,73,0,239,199,189,1,247,68,169,79,230,82,289,35,97,197,45,107,161,136,98,256,158,76,146,144,298,257,11,9,177,145,40,198,259,156,203,261,266,231,90,81,3,195,20,47,157,227,225,78,229,246,43,65,172,116,13,276,25,26,39,140,7,91,173,66,119,8,52,31,267,96,64,242,192,167,215,245,24,148,243,152,204,210,163,62,55,248,139,142,69,268,15,182,147,208,118,86,32,265,38,53,57,202,75,285,187,206,128,131,125,194,93,209,288,70,274,21,102,2,150,271,12,166,253,275,165,114,216,80,218,264,162,85,6,191,255,196,121,190,251,295,186,132,154,213,83,42,258,133,61,236,112,260,263,122,77,284,224,30,49,99,244,176,226,170,205,92,175,141,50,37,88,46,28,217,63,290,153,106,143,254,168,286,269,179,228,193,126,117,87,127,33,14,48,111,135,58,113,149,296,299,151,44,27,138,270,94,130,129,22,233,221,292,174,100,134,220,293,123,252,181,249,23,201,294,200,103,211,240,180,212,71,280,17,219,183,278,234,232,277,160,282,223,67,273,283,222,84,120,185,297,54,56,108,36,115,279,184,29,241,272,74,262,137,171,72,281,10,95,34,250,104,19,155,60,41,287,18,110,214,101]","10","arrowleft","","18"
"","982","canvas-keyboard-response","46","195230","0.0-19.1-0.1-0.1","arrowright","[96,193,117,89,291,108,197,228,86,82,163,258,189,26,59,273,71,164,18,55,267,293,58,40,109,104,32,180,44,181,113,211,178,145,207,110,195,204,201,120,2,22,225,216,125,100,244,272,10,238,224,99,223,1,134,161,268,15,260,21,48,292,7,295,73,149,81,290,87,130,49,45,135,221,235,140,247,70,265,127,154,243,147,42,90,299,131,80,298,282,54,165,133,66,257,13,35,78,219,124,264,114,198,11,30,60,84,284,192,262,275,249,106,245,137,160,14,16,62,261,123,217,242,111,85,88,230,105,39,3,213,226,209,116,287,179,72,233,237,101,177,246,276,173,37,220,186,33,61,151,103,174,253,187,136,12,94,289,256,34,148,250,251,248,269,77,146,138,263,142,166,93,277,156,210,121,236,184,158,28,17,24,129,122,31,190,296,41,252,43,215,83,20,112,74,157,206,23,205,281,6,107,175,176,280,279,65,199,63,214,222,97,143,76,53,132,271,194,119,118,52,168,202,98,46,278,169,259,27,212,208,47,162,241,4,29,9,185,188,19,150,79,270,203,182,232,240,229,0,172,170,285,115,286,191,255,36,254,68,155,159,239,69,234,288,141,91,102,231,64,75,38,50,95,200,57,167,126,283,153,294,183,171,8,128,274,196,51,152,227,67,56,266,25,5,144,92,297,218,139]","10","arrowleft","false","18"
"","4449","canvas-keyboard-response","47","202020","0.0-20.0-0.0-0.0","arrowright","[234,198,222,258,66,237,94,77,133,99,215,161,183,216,137,69,212,267,273,122,111,43,190,269,285,117,218,206,47,62,27,176,149,100,279,119,251,78,8,17,192,128,5,92,33,59,11,130,50,53,75,275,175,70,10,209,144,265,293,132,232,76,28,195,211,223,219,84,225,108,210,266,148,154,213,208,186,227,243,83,187,74,14,82,246,233,18,140,178,105,88,58,289,250,288,126,45,165,173,2,97,37,244,221,71,40,109,101,36,262,272,150,255,56,34,277,276,51,270,81,271,141,164,0,52,155,21,63,204,121,136,194,282,16,249,200,281,31,235,118,242,15,55,290,236,238,25,172,1,143,86,12,226,174,95,231,114,274,158,153,205,280,24,129,46,79,166,68,220,125,102,247,20,106,298,261,182,42,240,162,39,299,73,168,181,263,35,131,228,252,145,160,199,7,239,127,163,139,230,184,142,134,26,107,297,292,287,203,167,29,87,64,197,241,124,264,259,179,61,268,283,294,188,177,256,115,169,19,248,214,30,116,48,286,96,135,156,90,85,253,295,13,147,291,254,185,57,193,60,157,80,22,245,44,138,260,49,207,4,103,191,229,32,159,6,98,9,91,217,110,123,67,146,112,93,151,171,41,201,152,89,284,202,23,296,257,120,38,189,3,54,278,170,104,196,65,180,113,224,72]","5","arrowleft","false","19"
