"view_history","rt","trial_type","trial_index","time_elapsed","internal_node_id","response","nodesOrdering","cliqueSize","correctResponse","presentationNumber","correctnessOfResponse"
"[{""page_index"":0,""viewing_time"":1363}]","1364","instructions","0","1364","0.0-0.0","","","","","",""
"","4152","canvas-keyboard-response","1","7251","0.0-1.0-0.0-0.0"," ","[146,24,286,154,213,118,215,1,68,178,2,93,237,191,43,97,35,127,169,181,77,179,134,201,298,132,13,74,220,184,81,47,289,122,211,203,162,17,251,87,149,73,34,204,157,153,66,108,155,163,175,263,98,25,53,38,255,5,130,230,70,31,209,249,147,262,234,299,164,189,69,8,194,114,142,182,62,67,235,124,159,290,52,141,145,165,46,0,56,296,284,27,104,101,171,200,221,281,139,287,259,231,218,243,168,96,111,92,112,158,253,244,257,41,176,26,223,177,33,117,160,21,138,4,131,238,269,30,63,278,119,76,233,188,115,3,276,240,42,32,170,80,116,107,186,227,280,102,106,239,271,144,199,295,14,10,136,241,44,72,83,283,292,212,22,55,190,19,270,78,232,236,197,291,185,126,219,150,48,217,11,222,133,49,207,71,161,224,282,54,210,192,198,167,99,187,57,23,250,60,247,9,100,88,272,12,94,293,121,264,39,45,51,195,20,6,140,265,59,206,246,120,174,267,95,196,297,28,226,91,143,40,183,172,105,129,137,75,214,256,85,61,110,64,166,89,288,151,279,274,156,90,252,113,285,86,109,125,16,216,248,148,37,261,123,36,128,18,15,180,58,245,275,294,65,103,50,205,29,84,79,277,82,258,135,208,193,173,254,202,260,225,273,229,266,242,268,152,7,228]","100","arrowright","0",""
"","282","canvas-keyboard-response","2","9234","0.0-1.1-0.1-0.1"," ","[225,80,177,111,1,159,59,275,108,281,7,248,36,118,296,222,193,294,103,293,226,283,45,190,162,38,100,139,49,289,14,279,209,127,72,224,21,136,123,185,146,71,244,187,152,297,110,8,29,25,112,249,22,39,202,91,53,157,11,147,186,35,176,19,261,233,75,44,250,58,266,280,98,51,290,97,65,295,166,2,104,42,28,62,167,206,288,238,0,32,27,277,158,102,151,183,40,74,251,132,52,94,272,83,41,128,287,214,66,174,231,82,264,96,170,232,171,88,207,260,156,121,299,77,81,34,68,212,63,286,149,86,241,160,93,235,164,195,56,95,70,109,24,221,55,113,284,175,114,274,124,13,246,239,133,142,12,291,143,50,242,227,163,210,99,259,254,5,140,117,189,54,217,43,269,105,9,148,17,4,23,150,173,255,161,237,57,119,90,144,245,126,182,292,268,184,179,67,153,197,258,89,203,218,201,228,73,223,47,230,129,178,87,262,69,220,106,219,200,10,138,256,135,208,131,134,240,247,122,60,204,181,229,31,215,145,285,298,61,155,199,243,278,168,84,92,20,196,191,194,130,169,78,172,192,141,101,64,165,257,180,273,267,115,282,116,216,211,236,154,79,252,188,265,3,125,234,253,30,85,198,48,6,263,16,270,107,46,205,276,120,76,137,271,18,37,15,26,213,33]","100","arrowright","0",""
"","358","canvas-keyboard-response","3","11283","0.0-1.2-0.2-0.2","arrowright","[258,110,119,295,13,144,293,188,29,274,271,31,262,83,168,160,208,2,42,40,259,255,62,143,220,3,243,107,27,7,84,211,36,174,207,250,57,18,32,172,241,126,166,14,121,52,198,238,86,276,118,59,72,261,104,129,71,236,26,76,21,285,235,156,150,120,113,205,106,176,175,190,230,135,252,206,117,92,247,266,189,111,69,223,132,43,89,245,114,254,46,171,159,66,109,24,294,204,101,178,153,154,297,78,81,201,192,152,147,146,232,133,263,226,148,137,17,214,251,56,33,246,58,22,155,0,151,35,180,1,37,196,248,182,50,10,162,145,23,85,185,184,244,61,138,140,281,115,112,141,242,128,93,296,157,79,9,215,234,80,15,134,125,257,90,202,228,8,48,260,273,169,124,225,39,6,16,4,45,216,105,203,265,102,63,68,161,210,286,219,287,218,173,217,44,41,12,233,212,96,167,163,25,249,20,275,270,187,127,289,177,272,122,280,103,186,264,30,34,60,277,149,268,54,278,73,282,38,100,53,49,164,224,97,47,64,197,70,227,67,290,222,239,221,284,237,88,5,291,269,51,194,142,28,136,229,165,77,279,179,170,99,75,87,256,98,267,283,74,116,299,158,131,95,94,195,199,19,130,191,11,193,82,209,292,91,253,108,181,288,213,183,139,55,231,240,123,298,65,200]","100","arrowright","0","true"
"","493","canvas-keyboard-response","4","13443","0.0-2.0-0.0-0.0"," ","[179,263,228,190,212,106,88,257,26,213,95,186,189,227,22,42,188,156,137,5,298,286,157,66,12,71,68,109,226,16,74,62,180,29,297,101,256,287,140,285,194,154,90,197,150,193,17,102,18,260,289,225,23,7,125,259,200,171,162,89,198,178,13,203,128,70,172,37,253,130,93,79,77,270,183,146,239,134,107,46,9,265,54,199,14,296,86,143,276,135,131,67,161,108,185,113,282,97,80,136,269,36,268,247,153,10,159,114,250,6,1,271,24,272,35,56,293,299,59,116,44,160,57,144,19,138,122,273,277,201,78,50,65,115,25,30,63,69,291,166,99,169,168,87,211,214,284,264,82,84,167,81,47,110,83,216,249,246,21,202,139,127,105,119,31,145,238,280,2,92,73,126,182,0,175,11,275,252,151,142,48,205,100,40,251,235,165,15,117,230,191,242,85,60,232,32,266,290,8,288,219,207,196,255,233,176,206,20,43,3,224,38,96,231,294,248,244,158,279,64,237,245,223,55,132,295,4,243,204,104,170,129,208,254,118,121,164,163,61,281,76,28,218,187,240,148,210,51,215,217,261,278,236,52,173,174,49,120,258,229,147,41,222,111,58,39,292,262,94,283,124,267,34,209,112,72,195,27,274,123,234,75,152,177,133,91,141,181,45,221,220,241,53,33,184,192,149,155,103,98]","95","arrowleft","1",""
"","450","canvas-keyboard-response","5","15570","0.0-2.1-0.1-0.1","arrowleft","[215,270,22,12,137,228,209,59,55,62,97,140,216,288,168,188,299,227,279,103,183,90,96,27,259,106,67,202,135,179,170,133,150,111,208,115,167,275,180,30,76,205,273,3,238,269,75,296,65,192,53,0,250,271,2,266,246,11,38,110,184,4,219,139,37,66,20,104,280,26,185,163,176,1,220,194,197,132,127,49,239,117,9,24,191,229,100,206,230,123,81,69,252,33,147,260,290,122,121,295,85,158,64,102,166,203,51,291,73,46,292,149,181,141,99,195,126,213,120,105,155,200,42,88,284,244,285,35,178,255,233,84,39,130,161,114,57,82,156,113,34,128,7,186,243,148,232,247,17,80,108,265,144,160,29,13,138,44,70,109,162,47,146,18,172,58,198,201,19,237,8,60,258,223,131,249,274,231,282,52,142,5,254,210,196,129,174,152,98,78,118,164,234,16,72,298,50,41,264,199,157,263,48,182,261,43,79,217,112,74,36,294,242,86,31,218,267,154,136,89,248,251,190,253,45,77,175,262,25,134,83,143,225,193,256,177,63,61,189,236,277,91,54,289,119,15,165,56,281,211,278,207,68,283,293,187,151,71,159,297,23,221,153,272,240,87,245,116,94,28,204,93,125,276,222,40,171,124,212,10,92,268,145,101,286,235,14,287,226,21,32,173,95,6,107,169,257,241,214,224]","95","arrowleft","1","true"
"","872","canvas-keyboard-response","6","18131","0.0-3.0-0.0-0.0","arrowleft","[115,31,51,190,127,50,280,139,262,165,88,114,231,54,156,123,244,246,240,260,20,106,44,158,80,59,217,220,219,74,43,176,104,241,185,152,251,254,227,100,71,130,268,200,175,119,261,298,64,248,288,121,210,229,32,102,273,62,0,294,105,181,140,42,142,193,39,257,97,166,149,195,297,143,275,94,255,21,233,282,287,213,202,277,108,201,177,73,40,206,180,15,4,203,214,93,264,272,10,266,247,204,170,225,87,41,198,263,256,148,7,258,99,224,77,299,243,296,47,207,228,189,192,265,70,111,63,76,292,128,17,197,135,118,16,270,75,14,120,68,85,141,283,182,126,81,83,137,113,89,172,150,109,122,79,133,72,242,69,269,67,45,131,96,101,86,53,124,250,35,134,285,61,48,236,187,208,56,19,252,12,161,290,279,230,58,132,52,191,178,221,286,82,13,22,183,138,209,110,199,66,253,235,159,154,218,26,186,216,33,6,125,238,153,211,194,222,237,267,116,65,78,196,171,188,92,168,295,232,160,2,162,103,98,9,34,46,259,23,278,11,212,163,223,184,226,293,174,29,55,95,289,36,234,169,60,291,136,239,164,274,30,281,146,3,18,5,145,28,147,84,27,1,107,24,117,167,155,112,49,91,8,157,173,215,38,25,284,129,144,276,37,271,57,179,245,205,151,90,249]","90","arrowleft","2","true"
"","1238","canvas-keyboard-response","7","21043","0.0-4.0-0.0-0.0","arrowleft","[219,258,32,40,146,218,193,39,120,214,245,295,70,256,200,289,18,150,4,21,281,74,46,263,132,37,223,83,224,152,209,134,80,56,67,35,48,0,213,206,244,151,274,180,28,170,22,166,278,19,255,15,8,12,204,3,293,155,286,50,30,45,279,112,69,1,17,42,113,127,161,171,38,227,26,194,125,277,141,291,162,207,184,105,160,220,52,158,265,210,190,31,192,163,34,60,287,260,53,47,157,121,231,181,100,9,13,68,177,178,135,273,275,229,284,154,251,2,101,230,232,148,179,283,165,96,203,205,84,111,145,236,212,44,71,195,216,77,129,89,79,239,264,186,299,259,75,24,64,142,25,246,202,164,136,174,14,222,130,296,267,217,65,276,126,76,143,183,140,85,106,252,103,87,91,243,176,187,61,215,156,133,297,211,233,226,11,238,196,124,285,198,88,6,94,49,182,66,41,102,128,241,92,97,153,119,16,269,253,110,272,173,58,33,43,290,93,95,62,282,254,237,73,51,247,257,191,249,144,167,262,82,138,147,104,27,280,149,168,197,115,5,199,118,189,63,137,123,114,20,59,122,175,81,86,139,268,261,221,107,228,57,72,23,270,298,288,271,10,78,188,266,117,292,54,99,242,90,116,201,98,234,185,248,169,235,55,172,250,131,29,7,240,36,108,225,294,109,159,208]","85","arrowleft","3","true"
"","469","canvas-keyboard-response","8","23187","0.0-5.0-0.0-0.0"," ","[290,293,261,116,89,275,147,117,138,220,289,276,57,121,139,68,104,184,17,221,212,22,215,279,36,39,188,148,8,259,150,18,140,267,7,136,246,119,73,283,158,93,164,208,269,133,3,247,31,51,53,40,34,62,25,191,12,272,281,82,266,186,66,218,189,287,270,125,297,203,248,252,194,162,288,109,258,143,224,9,298,132,19,177,211,250,44,217,227,179,144,67,229,242,190,185,219,285,174,201,178,214,151,159,118,16,265,38,107,46,264,77,277,30,10,291,196,278,168,43,28,124,126,105,95,48,114,256,273,210,111,146,157,202,198,113,122,47,120,41,172,257,284,115,35,26,88,54,49,92,45,295,251,193,156,226,112,205,58,60,175,161,11,155,244,70,81,213,241,296,56,29,187,169,173,13,37,245,63,192,123,15,204,239,50,101,103,110,268,263,207,145,108,27,234,182,6,160,134,32,176,85,235,163,240,243,52,294,197,20,260,153,223,64,166,199,292,84,135,79,142,100,106,127,75,236,0,200,87,137,228,65,21,237,23,91,282,71,102,83,253,206,231,141,131,129,55,154,280,255,130,76,286,165,90,183,299,262,96,225,33,14,86,167,216,152,274,59,69,2,61,181,171,78,170,1,42,80,5,232,230,195,24,149,97,99,209,94,4,271,249,254,222,238,233,74,180,128,72,98]","80","arrowright","4",""
"","413","canvas-keyboard-response","9","25298","0.0-5.1-0.1-0.1","arrowright","[58,49,188,98,0,27,4,36,14,44,60,142,207,102,176,243,8,54,92,199,167,160,113,135,262,108,202,74,159,29,131,219,229,80,180,224,141,20,166,10,259,87,48,62,173,278,154,228,237,50,168,210,26,225,30,223,70,220,148,91,203,206,171,192,249,136,195,110,204,140,84,53,35,258,152,40,214,291,255,86,290,90,244,1,196,292,78,93,169,18,77,233,101,68,73,175,39,252,12,161,226,208,283,266,245,32,289,286,66,38,133,158,242,67,89,280,129,120,41,263,107,189,194,191,146,138,232,150,103,250,56,181,209,162,143,112,230,236,96,2,28,124,139,3,164,99,240,115,15,273,126,165,279,234,52,238,57,85,132,216,298,137,118,94,182,64,274,157,297,37,122,285,25,47,247,114,265,128,200,282,269,147,222,287,72,294,43,178,281,190,17,106,174,260,177,293,121,271,116,100,22,95,253,163,127,134,125,256,83,75,267,13,42,275,119,264,299,88,21,55,205,153,117,251,9,11,277,130,183,296,19,69,213,46,71,212,81,215,97,268,187,59,261,276,193,218,65,145,123,172,111,246,186,184,235,5,33,144,149,51,201,198,105,109,248,16,45,284,156,155,217,227,270,295,254,241,185,211,63,79,34,23,61,197,257,76,221,272,31,231,179,170,6,24,288,82,151,7,104,239]","80","arrowright","4","true"
"","628","canvas-keyboard-response","10","27602","0.0-6.0-0.0-0.0"," ","[274,155,148,124,140,89,62,211,193,192,269,20,212,187,128,80,82,265,106,162,38,100,114,115,180,279,176,247,200,196,109,284,283,172,66,241,298,40,167,25,169,207,50,76,14,230,186,185,206,208,107,56,73,236,224,220,270,151,102,255,244,37,110,95,251,53,32,170,202,291,108,235,24,252,268,18,209,285,135,239,119,218,256,276,257,29,19,130,171,45,93,61,16,197,34,248,123,271,129,68,71,216,297,9,288,213,275,238,181,147,286,99,214,260,54,245,266,293,299,223,116,188,78,133,290,158,84,42,219,47,222,261,8,33,182,85,296,5,22,112,195,280,250,229,132,15,198,21,292,139,295,39,143,246,228,113,10,41,64,146,194,122,243,57,231,183,23,92,91,97,232,96,43,177,48,226,225,154,217,90,86,267,12,240,173,166,160,51,159,253,44,6,120,249,125,58,203,26,215,70,258,103,111,75,121,46,149,142,184,11,55,126,136,259,131,88,3,60,49,152,175,277,150,237,27,104,157,141,13,67,289,264,98,7,153,17,87,31,227,282,28,83,221,138,63,278,199,281,65,165,81,233,59,242,204,189,94,1,79,201,174,118,168,164,117,262,205,101,2,69,156,72,179,30,144,161,273,36,234,210,134,52,4,35,163,0,191,272,105,127,145,254,77,287,137,263,294,190,74,178]","75","arrowleft","5",""
"","894","canvas-keyboard-response","11","30131","0.0-6.1-0.1-0.1","arrowright","[77,7,111,109,238,204,2,44,267,282,23,260,227,200,288,261,91,284,29,223,294,27,67,25,203,160,58,265,185,263,163,28,84,220,40,116,246,293,248,154,164,280,131,81,266,18,78,0,225,8,95,218,88,199,181,202,276,123,54,99,187,94,153,142,139,159,268,269,252,73,119,103,216,68,32,126,236,22,251,175,219,86,51,192,241,61,60,228,209,75,124,255,62,178,150,141,274,80,41,233,226,89,79,46,66,137,167,98,48,113,195,24,237,235,19,149,211,214,272,100,156,259,52,42,65,191,110,112,43,170,198,133,140,82,13,229,165,186,130,215,158,247,190,285,104,250,96,298,283,145,16,168,36,270,254,271,102,207,108,177,277,17,278,12,37,117,234,53,128,148,299,292,122,14,239,176,74,146,34,172,210,231,30,39,193,70,114,242,4,132,157,115,56,9,286,155,26,63,232,206,245,85,45,33,59,287,136,121,171,212,257,173,93,127,83,38,72,64,47,118,144,134,107,31,50,101,90,49,240,258,180,166,290,169,161,5,184,162,256,244,35,230,97,152,151,87,253,147,279,57,208,194,15,188,295,6,243,76,10,297,296,222,201,197,143,135,205,182,262,55,69,273,281,71,105,249,1,196,138,21,3,264,92,120,183,289,224,20,174,275,179,11,217,125,221,291,106,189,129,213]","75","arrowleft","5","false"
"","780","canvas-keyboard-response","12","32579","0.0-7.0-0.0-0.0"," ","[139,9,167,201,28,276,118,259,48,110,268,190,117,144,60,78,250,287,82,180,63,51,1,188,265,45,175,234,88,121,209,21,242,75,67,236,212,271,44,255,90,252,92,120,81,53,261,288,8,108,286,169,281,20,49,104,295,256,195,16,69,130,248,178,292,157,31,3,122,38,146,299,93,229,263,55,210,179,124,211,186,164,191,32,13,74,203,182,128,273,196,27,7,270,62,154,50,185,290,147,241,264,247,39,258,22,86,84,158,199,220,46,217,193,198,165,58,6,87,59,244,291,70,269,277,2,231,10,249,172,76,219,162,243,254,282,176,19,153,113,11,284,216,235,207,12,289,64,135,222,102,163,115,159,214,260,103,204,155,29,184,240,143,171,206,187,218,66,200,274,245,232,73,97,297,83,14,257,0,42,142,266,79,37,129,4,296,197,107,99,173,57,174,95,160,24,215,132,166,68,208,105,213,18,134,25,239,109,61,72,230,138,30,116,137,298,225,161,168,148,151,36,94,272,246,125,41,43,294,181,224,101,237,80,278,223,152,17,150,98,156,141,140,119,111,106,123,114,33,89,285,192,267,34,40,136,251,228,194,126,279,170,35,177,205,85,100,233,238,275,96,131,227,112,183,52,262,77,133,91,127,221,293,15,283,47,26,65,23,71,202,56,226,54,149,5,145,253,189,280]","70","arrowright","6",""
"","527","canvas-keyboard-response","13","34787","0.0-7.1-0.1-0.1","arrowleft","[80,83,0,6,259,182,3,271,95,79,52,32,56,132,260,88,178,234,270,110,189,208,14,210,117,43,144,49,40,206,191,187,55,280,39,4,281,101,242,116,174,241,248,243,275,168,78,47,290,249,11,263,45,236,261,284,28,296,256,135,91,147,199,166,73,60,20,295,82,253,57,146,70,126,161,267,294,164,118,113,127,229,149,44,276,297,131,48,195,141,137,269,227,9,265,42,201,298,230,277,202,167,299,239,212,272,219,109,77,154,138,13,165,158,54,288,264,252,181,203,150,19,35,119,26,62,254,194,75,142,68,173,283,139,228,207,156,50,160,114,200,140,257,238,12,162,221,21,240,268,216,151,108,22,180,244,81,130,159,153,18,213,293,38,87,196,92,177,134,124,31,266,155,172,97,85,285,17,121,190,143,34,128,122,16,8,258,66,46,89,214,86,223,245,218,193,53,217,123,111,120,71,29,170,231,282,163,37,102,41,98,198,179,133,112,63,255,25,58,93,251,100,197,171,33,72,103,274,7,94,36,65,185,222,205,250,59,176,184,129,262,90,99,291,211,23,279,64,186,273,148,96,235,169,175,105,209,1,215,106,2,136,24,51,246,15,115,225,157,74,247,104,188,76,27,152,278,232,125,84,237,287,30,69,233,183,224,5,192,10,226,289,145,107,220,286,204,292,61,67]","70","arrowright","6","false"
"","643","canvas-keyboard-response","14","37107","0.0-8.0-0.0-0.0"," ","[172,204,111,198,94,124,221,90,176,283,252,91,205,71,17,254,96,236,65,297,135,134,1,177,229,143,99,160,148,207,262,37,105,9,159,153,224,199,278,28,267,234,249,36,46,208,299,294,100,129,44,179,235,210,246,29,126,68,216,59,87,231,78,211,34,292,250,247,41,275,281,12,220,241,5,43,200,222,72,128,138,219,7,52,102,298,76,269,196,11,108,169,103,92,19,16,88,113,10,189,116,23,257,21,217,237,289,117,73,144,197,141,175,66,157,32,140,98,296,149,248,24,202,150,156,3,18,25,45,106,256,170,258,137,75,274,230,225,93,171,185,244,70,190,167,101,136,162,119,251,212,293,114,86,265,226,122,232,4,147,184,233,50,270,64,35,142,203,53,271,38,14,33,238,110,263,223,95,125,133,268,164,107,139,192,273,115,57,288,49,272,40,118,54,31,123,112,239,58,188,151,48,80,51,154,264,178,285,290,56,193,276,206,214,186,242,26,74,15,127,240,30,84,168,121,260,161,213,209,279,180,191,243,295,6,60,146,286,0,158,245,67,218,253,280,62,173,145,2,194,63,104,27,165,277,120,132,166,82,195,22,163,97,13,155,39,55,69,89,20,182,79,259,228,174,291,201,284,181,109,77,215,131,261,83,266,8,61,282,85,227,130,42,287,152,187,81,183,47,255]","65","arrowright","7",""
"","441","canvas-keyboard-response","15","39235","0.0-8.1-0.1-0.1"," ","[85,31,191,197,274,13,8,212,159,164,71,216,83,36,242,96,101,82,55,102,169,32,230,266,160,38,226,2,37,120,253,206,5,4,12,289,23,225,172,42,116,60,287,198,152,267,92,279,29,75,109,295,78,117,35,153,277,199,202,147,256,59,187,249,240,284,244,14,238,151,77,263,255,125,179,264,112,49,294,84,88,183,192,72,258,141,108,272,27,270,273,26,204,20,195,235,137,76,145,136,18,93,157,239,127,275,184,278,207,22,33,124,67,53,171,73,43,139,261,54,19,68,246,218,182,100,243,203,41,21,177,66,138,134,296,148,158,252,135,65,113,175,211,233,10,58,154,133,61,220,24,81,234,297,51,190,105,17,219,228,201,130,161,214,224,129,146,132,97,170,196,9,126,121,47,247,231,98,288,188,210,181,16,79,40,208,39,223,15,163,236,122,229,166,1,222,142,276,74,213,286,298,91,282,162,189,269,299,6,30,227,200,254,259,176,128,232,262,173,260,140,87,52,106,34,28,217,57,290,185,205,251,178,63,95,94,107,268,3,265,248,11,281,118,280,25,149,174,62,111,194,245,156,99,193,271,186,221,56,168,241,209,293,237,89,7,110,64,155,46,150,257,90,48,180,104,123,250,103,165,283,119,0,114,45,131,80,215,44,285,50,291,167,144,69,70,86,143,292,115]","65","arrowright","7",""
"","398","canvas-keyboard-response","16","41331","0.0-8.2-0.2-0.2","arrowright","[175,284,178,217,127,44,297,29,276,109,132,159,100,67,156,149,32,85,272,277,136,186,246,210,179,45,172,144,113,69,228,290,6,281,91,250,200,80,74,202,39,7,183,205,153,254,201,184,192,242,177,86,274,73,150,220,128,56,292,191,110,198,33,121,64,268,88,92,269,181,243,233,261,97,270,168,82,1,41,16,162,173,78,158,23,54,12,9,118,71,49,129,46,176,2,142,79,285,275,229,0,226,138,232,267,3,213,63,148,189,68,19,141,75,289,247,53,42,174,252,5,22,122,65,287,169,185,31,167,151,117,123,47,90,282,166,239,235,11,27,161,114,21,94,278,15,43,257,299,152,224,81,273,51,155,106,291,96,116,38,30,240,231,288,66,140,216,236,28,57,223,154,230,266,62,237,104,83,279,260,101,280,249,171,283,120,137,139,212,265,55,105,207,76,244,248,218,108,10,99,48,262,70,36,134,35,295,241,8,58,18,203,145,234,221,93,263,199,147,187,190,208,52,26,95,204,119,131,163,164,77,50,209,253,264,17,296,25,4,251,34,60,125,146,124,298,195,130,196,37,256,180,72,126,211,14,89,214,194,206,271,182,258,219,135,98,13,170,222,107,193,225,40,259,115,157,294,87,84,188,215,102,133,165,111,59,286,143,197,245,255,238,24,160,103,227,61,20,112,293]","65","arrowright","7","true"
"","489","canvas-keyboard-response","17","43491","0.0-9.0-0.0-0.0"," ","[160,46,111,157,105,117,267,51,57,152,120,192,226,265,169,14,240,141,177,293,155,53,91,268,16,190,98,184,110,55,248,9,31,237,282,168,13,102,116,204,29,234,128,266,33,100,259,176,181,280,10,162,0,298,30,84,38,79,23,159,195,299,4,296,151,214,81,86,5,233,52,43,20,294,272,206,58,101,165,153,77,112,191,199,113,210,44,175,36,27,149,146,171,275,135,67,90,246,70,212,49,108,281,289,150,170,78,271,1,180,7,89,54,125,130,124,35,147,28,229,18,8,65,244,107,215,42,136,143,276,232,17,270,104,261,15,221,126,278,92,213,122,260,156,241,132,118,114,292,40,253,189,37,50,148,288,71,201,291,252,11,21,197,32,187,34,94,256,127,161,203,231,123,287,286,134,269,25,103,60,74,82,47,257,87,238,163,173,139,235,283,250,83,93,45,207,243,142,273,284,115,290,193,225,63,68,245,3,200,72,158,188,6,217,185,62,119,220,172,218,106,258,182,167,145,208,285,274,236,39,95,224,186,19,121,219,297,96,85,144,64,97,179,202,80,66,230,164,69,254,194,12,59,133,279,26,209,227,247,216,295,73,263,129,99,109,264,205,22,56,2,242,138,211,198,140,277,255,178,249,196,131,262,222,75,48,183,61,228,41,154,174,239,76,88,166,24,137,223,251]","60","arrowleft","8",""
"","408","canvas-keyboard-response","18","45587","0.0-9.1-0.1-0.1","arrowright","[197,136,184,92,124,148,166,167,59,292,18,91,82,120,214,229,260,22,242,265,281,199,191,27,78,193,86,251,128,35,227,135,2,110,141,188,134,3,198,137,254,5,12,228,257,40,203,127,140,278,83,153,98,31,175,51,200,241,186,69,36,119,14,0,105,38,80,85,63,192,244,64,32,237,132,211,66,37,196,99,118,267,249,170,56,4,182,258,146,125,190,94,115,73,41,225,48,26,236,106,76,176,133,205,123,39,144,246,68,226,277,108,47,21,224,121,271,52,286,222,280,139,298,93,8,163,284,15,295,150,24,173,88,247,252,293,23,13,152,44,33,239,180,172,7,156,219,201,185,155,272,215,221,213,245,122,233,276,253,178,102,259,255,217,231,61,11,282,53,142,129,16,95,291,57,79,55,149,130,49,171,58,29,204,154,230,104,195,206,112,270,216,209,101,19,294,34,10,138,72,84,268,87,107,111,234,164,169,273,177,117,168,60,77,145,232,183,20,240,81,131,9,45,103,187,181,238,71,28,114,30,113,74,1,289,256,299,96,288,210,297,126,189,151,100,70,296,147,287,202,157,261,274,162,223,165,235,285,46,160,54,290,43,266,262,42,194,161,97,62,75,89,263,283,220,6,275,243,269,218,250,207,159,279,17,212,116,208,65,264,174,248,90,67,50,143,109,158,179,25]","60","arrowleft","8","false"
"","600","canvas-keyboard-response","19","47859","0.0-10.0-0.0-0.0"," ","[114,64,30,274,193,248,282,9,52,14,17,253,176,221,295,93,109,160,222,277,159,131,94,285,246,291,27,127,67,199,287,254,23,229,279,179,200,213,69,83,112,137,195,62,299,101,111,241,147,154,56,161,95,12,191,174,2,108,266,151,263,37,187,216,236,215,130,144,41,166,81,237,86,53,257,269,181,28,98,75,270,223,157,289,31,29,135,66,92,226,267,82,183,168,242,163,45,141,143,232,39,125,61,80,189,212,175,233,142,202,264,165,78,20,139,110,297,105,265,190,207,102,259,219,173,225,224,162,220,129,19,255,278,150,104,58,238,54,44,119,230,284,234,120,57,167,88,198,208,59,47,68,18,206,123,171,96,196,188,134,146,182,49,128,46,24,21,117,107,293,77,273,272,55,89,203,79,204,11,169,180,156,71,258,84,194,240,249,113,1,40,15,132,231,261,65,76,16,5,33,244,8,271,209,155,262,268,97,281,252,25,276,197,7,22,177,0,42,140,106,170,205,214,13,124,38,218,103,250,60,138,251,48,298,178,73,91,3,51,50,32,116,210,74,243,126,35,153,70,148,280,6,145,115,283,26,290,235,149,10,152,228,34,192,211,292,85,72,36,118,4,184,100,164,201,260,99,185,275,172,245,227,90,87,286,186,288,158,121,136,63,294,217,133,122,256,43,296,247,239]","55","arrowleft","9",""
"","424","canvas-keyboard-response","20","49955","0.0-10.1-0.1-0.1","arrowleft","[188,109,216,55,249,238,123,148,170,171,121,125,32,209,41,289,3,255,202,169,217,50,15,182,130,147,282,215,11,46,73,140,150,76,229,234,174,246,95,191,39,47,296,267,37,98,62,228,204,7,112,167,214,242,203,213,30,1,243,281,81,271,63,12,0,92,158,143,131,51,137,175,210,261,42,23,20,70,219,6,223,90,85,226,235,168,16,176,28,156,263,2,260,208,151,114,259,298,201,149,221,106,153,77,58,195,292,138,160,89,101,141,222,84,180,24,100,279,107,116,227,274,61,268,218,78,45,146,142,184,256,231,118,4,34,179,57,161,97,144,199,36,88,240,291,250,200,220,237,69,21,9,164,285,113,59,25,181,252,104,187,18,134,278,64,117,14,287,245,247,49,66,212,277,265,10,145,17,102,270,280,189,33,272,99,183,186,178,207,293,173,172,60,192,19,239,65,273,8,236,111,257,155,5,248,52,43,159,72,198,83,233,126,196,128,54,294,67,13,119,193,80,197,120,22,132,190,157,135,35,224,254,40,275,48,136,264,26,286,31,230,75,27,288,194,74,108,284,152,115,53,56,124,166,110,133,103,244,96,86,232,91,253,241,295,44,127,162,290,93,276,165,266,82,38,68,205,262,225,251,71,94,129,122,163,154,177,299,283,211,258,87,297,105,206,139,79,185,29,269]","55","arrowleft","9","true"
"","579","canvas-keyboard-response","21","52211","0.0-11.0-0.0-0.0"," ","[267,276,228,190,70,59,287,265,93,288,237,168,294,272,159,252,128,249,98,36,133,131,0,64,40,29,7,165,23,222,189,142,10,126,205,191,46,71,57,204,14,37,32,299,148,120,75,22,186,51,85,182,178,68,67,21,174,33,111,89,90,143,158,173,195,49,278,225,227,69,187,266,284,248,17,256,96,38,202,108,238,139,77,169,146,155,281,164,292,244,105,118,171,254,260,102,218,119,80,199,34,179,181,130,74,1,259,212,277,245,242,236,15,50,66,2,246,209,280,290,144,183,291,206,214,132,20,52,251,219,86,73,107,156,198,72,31,65,113,161,210,92,184,76,147,104,233,196,47,140,231,61,273,54,106,101,163,56,43,224,44,152,110,282,13,94,11,82,207,220,283,211,48,293,16,123,122,177,115,63,19,18,79,129,261,162,197,262,78,297,257,167,141,296,27,170,5,87,116,95,154,226,124,153,39,4,298,114,193,117,8,270,149,180,60,121,192,160,241,250,81,255,112,137,103,258,28,97,172,223,213,135,217,136,274,263,269,41,216,83,26,286,215,25,35,239,194,201,188,42,229,234,221,289,247,175,203,12,24,91,109,230,200,84,53,253,88,145,125,176,30,45,100,138,235,99,58,157,268,127,275,232,185,3,279,150,62,271,166,9,285,243,240,264,55,208,295,134,151,6]","50","arrowleft","10",""
"","420","canvas-keyboard-response","22","54307","0.0-11.1-0.1-0.1","arrowleft","[189,166,110,294,226,53,165,157,243,50,207,34,78,106,129,201,221,40,61,185,142,161,48,64,176,240,227,234,148,136,218,28,261,66,147,149,76,120,295,268,292,89,181,5,235,112,7,245,239,206,284,158,249,242,283,42,156,126,203,55,132,43,287,256,68,1,130,233,180,280,124,238,274,195,230,253,270,172,83,87,36,214,3,8,153,200,202,101,85,162,9,167,259,41,69,293,155,141,107,54,144,6,23,288,95,297,99,254,108,223,27,134,35,19,77,96,154,111,73,171,118,222,241,164,79,182,16,140,51,67,33,266,279,105,104,196,296,273,257,30,113,11,57,128,262,4,127,14,22,210,58,193,260,289,143,103,179,282,151,251,32,204,10,244,208,52,90,12,199,94,286,86,59,92,25,70,38,100,192,236,17,84,97,21,152,224,150,160,184,159,18,216,122,72,49,131,290,194,247,80,276,248,211,125,109,299,123,267,145,232,281,265,220,37,173,56,116,168,250,60,277,137,177,102,169,217,246,212,258,63,133,229,119,191,115,228,88,2,285,62,174,31,205,135,45,275,74,269,71,237,44,65,178,188,198,272,219,190,225,91,278,29,213,47,263,26,39,298,187,138,215,139,183,15,20,0,81,98,255,121,271,46,82,231,175,117,186,291,209,24,146,13,75,114,163,252,197,93,170,264]","50","arrowleft","10","true"
"","946","canvas-keyboard-response","23","56931","0.0-12.0-0.0-0.0","arrowleft","[151,135,293,49,282,274,82,13,271,283,255,279,183,235,124,133,246,195,179,202,107,181,39,0,150,2,40,170,23,286,85,187,36,208,157,134,218,234,46,16,4,241,198,102,251,58,238,256,177,224,34,79,118,160,32,148,138,130,226,89,24,211,86,252,229,55,78,50,178,74,296,163,59,232,147,173,88,207,159,33,215,242,8,28,15,117,186,141,197,260,291,72,30,19,43,35,253,37,176,97,139,113,204,120,267,92,106,144,112,281,297,53,292,27,166,29,249,136,142,196,259,145,240,69,245,169,131,96,101,155,56,64,5,126,231,239,221,200,199,294,143,290,180,11,273,127,60,213,22,66,146,222,244,227,257,10,152,62,125,210,191,295,116,6,223,171,217,263,212,205,132,91,123,21,262,71,61,189,216,52,65,75,214,76,278,264,156,25,192,167,98,237,182,201,137,220,272,105,254,14,280,63,172,175,122,158,287,70,42,265,275,299,104,161,284,20,18,41,184,247,268,48,276,3,233,194,219,258,95,248,277,73,111,90,47,149,67,261,7,193,77,110,269,31,44,115,17,94,87,99,128,168,164,270,103,54,114,84,83,12,68,121,162,81,289,288,51,100,1,109,45,174,108,285,188,209,9,236,165,203,57,129,119,93,230,298,250,228,225,243,154,26,206,266,185,140,80,153,38,190]","45","arrowleft","11","true"
"","764","canvas-keyboard-response","24","59363","0.0-13.0-0.0-0.0","arrowleft","[145,238,3,184,191,33,297,109,66,266,235,245,57,189,39,87,19,197,286,78,100,60,119,275,277,49,79,92,217,188,74,2,142,83,157,21,47,285,13,9,284,280,84,7,111,165,128,5,151,127,140,162,94,234,75,242,61,224,252,182,97,55,41,270,265,281,299,211,264,80,160,106,54,290,138,90,0,114,117,287,149,93,86,180,133,103,135,260,239,148,104,177,166,233,183,218,67,176,167,6,206,253,51,155,195,247,164,48,12,246,243,171,20,212,261,251,81,58,296,91,170,121,10,105,205,250,175,70,258,32,130,28,293,88,63,46,129,229,139,53,163,179,221,294,262,136,146,208,173,231,283,152,26,108,158,101,72,232,45,271,143,240,187,34,24,174,102,222,215,73,168,14,27,107,288,4,18,241,257,89,124,77,292,214,201,69,263,154,216,132,82,273,210,36,289,95,125,237,268,244,144,1,236,68,76,56,50,199,150,43,198,269,113,29,116,99,123,213,267,59,147,272,178,223,255,248,40,219,23,291,193,141,98,172,115,192,31,71,203,186,209,156,204,15,120,52,110,25,112,65,122,62,17,96,64,230,256,279,169,30,226,202,22,38,298,185,161,200,194,8,259,249,16,276,228,274,159,227,190,44,225,85,278,207,153,35,126,42,134,282,196,254,220,37,137,181,131,295,11,118]","40","arrowleft","12","true"
"","1267","canvas-keyboard-response","25","62306","0.0-14.0-0.0-0.0","arrowleft","[136,2,271,295,135,5,226,128,16,168,152,218,32,159,70,208,255,163,103,116,78,96,124,44,132,205,55,75,121,66,76,286,127,90,246,47,131,259,287,254,17,86,233,24,284,74,52,20,182,46,227,195,58,28,165,184,189,260,291,61,202,117,166,150,207,125,92,81,107,42,149,73,285,175,84,35,236,130,122,261,224,100,283,19,167,270,193,146,114,105,212,267,275,253,299,204,85,179,1,192,13,80,109,277,274,4,279,292,30,169,63,173,157,170,194,160,106,220,201,231,65,60,111,95,59,200,145,10,280,41,83,34,257,252,101,9,210,197,25,29,15,108,120,262,242,249,93,119,21,33,57,27,110,138,142,89,237,26,115,144,67,71,133,290,69,39,126,251,94,0,23,82,289,72,43,187,198,158,162,268,102,269,191,113,222,219,229,129,3,297,213,276,174,77,211,151,154,8,247,112,190,161,232,40,140,22,68,273,185,221,156,104,79,258,266,88,54,186,296,171,45,278,203,263,250,282,244,223,172,18,228,6,256,50,155,118,235,230,51,178,97,36,216,264,56,239,64,99,91,123,177,176,188,147,196,265,215,241,14,243,294,234,199,298,209,62,49,240,48,38,53,148,139,141,281,31,98,11,272,288,238,214,164,87,245,143,293,180,217,137,181,206,153,37,7,134,183,248,225,12]","35","arrowleft","13","true"
"","1390","canvas-keyboard-response","26","65363","0.0-15.0-0.0-0.0","arrowleft","[114,143,102,54,109,222,7,38,110,189,174,255,15,140,65,63,298,6,79,72,227,161,5,169,194,25,159,122,47,294,188,78,68,120,156,295,220,256,246,292,267,127,193,60,124,276,23,202,70,286,154,112,279,76,134,62,231,18,264,296,41,245,152,81,213,187,93,119,104,198,274,293,216,190,94,237,50,277,13,167,27,157,118,64,44,53,8,46,146,214,180,100,132,285,170,142,166,1,61,90,113,272,217,49,117,101,45,177,240,243,32,125,73,162,21,131,283,225,99,229,59,297,84,259,238,218,148,257,135,241,235,11,9,248,121,263,278,280,105,242,211,182,30,12,178,86,35,233,268,116,260,204,123,215,52,108,265,290,207,251,183,107,171,37,130,77,168,20,158,208,164,219,14,163,42,43,160,33,88,2,269,176,275,179,153,250,186,91,239,288,80,144,244,0,262,199,210,151,56,191,128,106,291,230,75,82,273,4,29,195,74,226,51,252,185,270,103,266,175,22,83,133,31,92,55,97,299,249,181,115,129,150,40,165,232,28,236,126,287,111,3,145,228,200,58,201,141,71,254,271,67,173,223,95,36,197,26,258,10,96,139,147,98,17,284,87,205,234,253,282,16,172,149,136,39,57,261,85,24,184,19,34,212,196,66,281,155,206,247,69,203,209,192,224,89,48,289,221,138,137]","30","arrowright","14","false"
"","1402","canvas-keyboard-response","27","68435","0.0-16.0-0.0-0.0"," ","[157,277,27,229,115,10,219,184,169,156,178,69,238,135,199,45,267,258,209,51,271,165,175,29,270,49,208,234,127,50,218,126,25,112,150,195,143,196,294,17,78,144,118,117,82,272,230,5,248,282,91,198,24,111,243,129,43,80,249,15,260,268,174,9,288,32,71,85,216,137,202,83,38,279,13,18,186,148,265,290,19,7,40,192,110,255,86,274,177,145,12,206,197,63,164,93,166,87,39,296,213,37,65,231,59,33,181,75,141,132,242,30,211,147,104,299,287,120,72,73,168,160,185,159,180,162,66,276,254,163,134,139,99,67,207,1,28,190,136,228,42,212,259,284,79,275,291,173,98,158,224,35,48,47,23,149,262,182,264,225,298,90,247,142,283,245,240,167,128,191,235,289,286,26,250,237,151,16,0,189,153,222,285,221,215,122,223,203,251,114,233,131,188,116,204,292,239,103,56,107,106,97,295,176,281,44,102,84,236,154,138,62,81,34,200,105,232,58,31,123,92,220,297,152,64,214,6,52,88,171,100,20,246,269,205,95,22,125,4,170,74,187,244,261,113,14,61,109,101,280,161,183,57,89,133,3,252,273,194,54,179,119,21,155,11,70,293,36,41,253,53,2,77,146,263,60,257,96,94,266,193,121,210,278,226,68,124,241,130,256,8,108,76,172,55,140,201,227,217,46]","25","arrowleft","15",""
"","669","canvas-keyboard-response","28","70787","0.0-16.1-0.1-0.1","arrowright","[157,212,137,232,113,227,122,57,280,76,254,290,52,25,171,70,146,61,8,237,163,199,7,221,147,19,116,247,78,285,255,245,24,95,69,132,279,273,63,18,125,181,85,106,59,174,32,183,235,65,71,53,265,41,219,73,242,21,123,284,28,180,189,80,72,197,62,289,204,34,124,94,145,211,141,152,45,165,104,119,4,261,293,48,68,166,206,248,101,51,142,10,176,105,143,186,268,299,17,159,229,156,256,179,35,269,257,226,210,98,27,296,133,167,194,193,191,88,271,66,49,192,90,112,77,55,252,214,75,240,196,30,37,207,187,115,3,36,33,11,170,96,291,120,131,121,184,267,139,2,14,56,278,89,238,111,87,97,136,12,83,275,177,277,243,86,234,99,0,294,58,251,286,144,46,200,148,195,153,67,107,185,198,22,43,202,40,287,169,129,82,29,47,64,93,79,102,231,260,281,81,274,38,84,262,220,151,110,103,175,215,168,266,91,213,259,126,39,236,182,225,162,127,128,149,164,134,118,15,135,239,188,44,178,201,100,92,288,74,276,60,230,203,161,282,54,297,138,223,246,250,205,216,108,295,154,244,217,5,50,253,228,209,13,117,241,298,263,20,249,109,218,150,283,158,272,270,190,208,6,258,9,16,23,224,114,26,222,140,160,42,155,172,264,233,1,173,292,130,31]","25","arrowleft","15","false"
"","976","canvas-keyboard-response","29","73427","0.0-17.0-0.0-0.0","arrowleft","[263,257,161,285,251,283,1,218,288,10,262,252,87,125,23,84,118,231,259,9,207,108,69,212,249,30,32,73,7,70,72,47,75,65,266,168,166,147,98,78,17,93,241,132,247,52,121,31,199,24,295,102,76,267,18,284,43,299,297,51,265,226,150,110,205,156,195,40,176,256,187,279,253,236,0,67,171,157,254,14,90,135,29,154,227,12,196,48,80,192,281,21,77,100,165,204,178,139,63,217,107,37,278,53,215,3,15,273,126,27,286,243,134,104,91,287,81,136,20,33,245,49,272,221,45,294,172,8,237,16,13,140,103,280,19,142,101,163,117,56,41,112,175,62,138,219,194,242,46,143,183,238,34,174,92,57,179,202,222,289,298,186,164,276,293,145,160,203,123,258,210,191,292,180,82,149,233,193,129,216,159,155,95,120,270,211,240,229,213,97,4,264,5,119,244,220,269,228,208,225,141,177,277,189,232,271,22,200,55,230,127,291,74,250,109,268,260,35,64,105,261,50,173,58,61,209,151,188,59,214,85,94,114,131,290,158,152,113,6,88,36,106,246,122,169,25,223,26,99,182,60,185,235,54,255,167,137,71,111,206,128,28,83,234,190,181,38,144,162,44,89,146,148,124,197,153,224,116,184,115,239,66,2,96,79,198,68,170,11,274,86,296,39,282,130,42,201,275,248,133]","20","arrowleft","16","true"
"","1371","canvas-keyboard-response","30","76467","0.0-18.0-0.0-0.0","arrowright","[197,155,210,108,33,156,170,18,72,149,237,250,203,258,141,217,119,225,129,191,228,267,140,97,196,128,91,187,153,182,15,16,285,53,263,286,26,113,151,90,4,206,54,216,242,40,293,143,7,271,256,274,87,241,57,291,70,289,14,32,20,138,120,193,292,10,66,261,160,104,227,1,157,83,262,11,269,259,74,224,233,45,176,204,171,199,148,275,131,136,194,73,177,100,158,109,56,163,219,154,220,35,180,0,244,78,144,169,231,81,245,37,47,268,190,89,179,248,294,111,195,240,39,172,159,34,41,25,114,235,44,167,211,281,212,189,239,103,270,229,246,266,255,79,254,28,280,60,3,130,209,200,29,284,299,59,106,61,181,173,202,207,86,290,52,188,165,185,175,95,234,126,30,178,166,277,50,117,17,273,139,55,142,137,19,226,208,198,214,115,132,152,249,24,232,222,278,94,12,101,183,186,77,288,201,283,121,63,174,218,105,84,110,2,272,9,27,116,147,264,38,43,22,96,75,295,296,297,42,122,223,213,85,282,98,102,133,69,253,162,150,145,260,13,276,93,265,192,118,134,99,8,51,298,252,164,123,64,238,88,31,82,6,125,58,230,236,243,168,76,23,127,62,46,80,279,205,36,49,68,124,215,5,65,257,21,92,247,71,161,287,67,107,48,221,184,146,251,135,112]","15","arrowright","17","true"
"","878","canvas-keyboard-response","31","79026","0.0-19.0-0.0-0.0","arrowright","[42,157,113,201,269,120,178,170,209,5,289,107,244,116,186,8,278,85,258,162,28,166,98,231,93,25,163,0,180,58,121,134,212,243,22,220,30,36,56,241,2,33,234,261,3,255,292,155,119,11,130,151,100,297,37,70,171,284,179,210,7,53,89,60,264,200,52,123,159,239,280,76,248,190,223,129,237,268,202,95,253,150,75,177,138,296,260,254,145,23,286,252,125,135,24,87,245,21,108,35,189,54,233,72,117,44,188,228,196,102,191,214,9,197,139,174,142,147,232,165,126,257,97,10,276,193,31,199,132,67,164,101,216,106,250,133,211,293,78,104,61,55,90,84,26,207,224,74,94,187,148,273,198,291,158,128,86,226,146,169,49,131,183,235,115,143,172,32,71,203,29,63,294,287,290,127,230,195,240,285,219,167,79,218,88,215,271,168,265,48,118,47,19,69,298,77,184,229,175,4,111,270,279,299,122,205,267,34,65,16,161,272,40,13,68,20,141,266,124,275,249,18,46,57,14,92,103,50,246,247,51,206,73,282,274,62,41,154,160,27,222,80,59,82,99,208,251,225,64,173,192,109,43,152,281,45,110,217,1,140,213,137,288,83,242,81,12,263,277,176,66,153,112,283,295,238,236,39,114,182,144,181,17,136,194,185,149,259,204,105,221,38,6,15,227,256,96,262,91,156]","10","arrowleft","18","false"
"","1095","canvas-keyboard-response","32","81794","0.0-20.0-0.0-0.0","arrowleft","[198,4,251,263,248,45,62,217,136,12,202,98,100,272,297,149,125,104,203,72,46,190,225,120,51,86,245,236,166,121,205,168,81,65,239,209,41,161,142,56,69,9,185,14,95,129,66,172,299,139,82,107,176,261,40,85,30,59,232,273,16,159,177,188,127,2,285,181,53,0,78,288,24,290,5,117,54,160,49,151,113,34,291,194,118,60,279,134,108,90,262,256,220,268,284,7,169,192,36,179,102,294,238,259,55,228,39,91,241,153,212,244,174,11,235,143,157,122,27,137,182,254,189,92,201,70,183,247,230,119,144,260,15,167,274,48,184,208,101,276,298,147,112,140,77,266,93,250,216,10,80,264,173,6,58,178,257,163,253,197,88,135,265,13,218,83,128,73,111,28,25,258,52,130,17,132,200,164,292,267,47,281,187,29,50,3,37,193,214,110,154,206,242,277,75,126,109,293,219,204,38,158,94,21,282,106,146,71,84,138,196,295,165,243,287,271,175,79,224,207,43,97,252,64,23,26,67,278,57,145,19,152,42,8,180,18,114,237,210,270,211,155,33,226,74,68,229,233,63,31,255,156,89,123,87,35,99,286,234,246,199,103,240,32,221,275,22,215,20,186,124,191,115,162,249,116,96,61,223,231,170,195,141,280,133,296,150,76,289,283,222,1,148,227,269,105,171,44,213,131]","5","arrowright","19","false"
