[{"view_history":[{"page_index":0,"viewing_time":1118},{"page_index":1,"viewing_time":649}],"rt":1768,"trial_type":"instructions","trial_index":0,"time_elapsed":1769,"internal_node_id":"0.0-0.0"},{"success":true,"timeout":false,"failed_images":[],"failed_audio":[],"failed_video":[],"trial_type":"preload","trial_index":1,"time_elapsed":1832,"internal_node_id":"0.0-1.0"},{"view_history":[{"page_index":0,"viewing_time":506},{"page_index":1,"viewing_time":197},{"page_index":2,"viewing_time":226},{"page_index":3,"viewing_time":141},{"page_index":4,"viewing_time":197},{"page_index":5,"viewing_time":171},{"page_index":6,"viewing_time":153},{"page_index":7,"viewing_time":149},{"page_index":8,"viewing_time":162},{"page_index":9,"viewing_time":161},{"page_index":10,"viewing_time":160},{"page_index":11,"viewing_time":159},{"page_index":12,"viewing_time":174},{"page_index":13,"viewing_time":166},{"page_index":14,"viewing_time":161},{"page_index":15,"viewing_time":151},{"page_index":16,"viewing_time":158},{"page_index":17,"viewing_time":154},{"page_index":18,"viewing_time":151},{"page_index":19,"viewing_time":150},{"page_index":20,"viewing_time":159},{"page_index":21,"viewing_time":156},{"page_index":22,"viewing_time":159},{"page_index":23,"viewing_time":165},{"page_index":24,"viewing_time":162},{"page_index":25,"viewing_time":127},{"page_index":26,"viewing_time":184},{"page_index":27,"viewing_time":155},{"page_index":28,"viewing_time":161},{"page_index":29,"viewing_time":147},{"page_index":30,"viewing_time":166},{"page_index":31,"viewing_time":152},{"page_index":32,"viewing_time":154},{"page_index":33,"viewing_time":176},{"page_index":34,"viewing_time":166},{"page_index":35,"viewing_time":126},{"page_index":36,"viewing_time":174},{"page_index":37,"viewing_time":197},{"page_index":38,"viewing_time":150},{"page_index":39,"viewing_time":158},{"page_index":40,"viewing_time":159},{"page_index":41,"viewing_time":163},{"page_index":42,"viewing_time":168},{"page_index":43,"viewing_time":142},{"page_index":44,"viewing_time":164},{"page_index":45,"viewing_time":161},{"page_index":46,"viewing_time":144},{"page_index":47,"viewing_time":185},{"page_index":48,"viewing_time":140},{"page_index":49,"viewing_time":192},{"page_index":50,"viewing_time":203},{"page_index":51,"viewing_time":155},{"page_index":52,"viewing_time":155},{"page_index":53,"viewing_time":171},{"page_index":54,"viewing_time":170},{"page_index":55,"viewing_time":111},{"page_index":56,"viewing_time":157},{"page_index":57,"viewing_time":213},{"page_index":58,"viewing_time":206},{"page_index":59,"viewing_time":175},{"page_index":60,"viewing_time":167},{"page_index":61,"viewing_time":125},{"page_index":62,"viewing_time":251},{"page_index":63,"viewing_time":209},{"page_index":64,"viewing_time":184},{"page_index":65,"viewing_time":178},{"page_index":66,"viewing_time":174},{"page_index":67,"viewing_time":136},{"page_index":68,"viewing_time":419},{"page_index":69,"viewing_time":178},{"page_index":70,"viewing_time":197}],"rt":12391,"trial_type":"instructions","trial_index":2,"time_elapsed":14224,"internal_node_id":"0.0-2.0"},{"view_history":[{"page_index":0,"viewing_time":688}],"rt":688,"trial_type":"instructions","trial_index":3,"time_elapsed":14913,"internal_node_id":"0.0-3.0"},{"success":true,"timeout":false,"failed_images":[],"failed_audio":[],"failed_video":[],"trial_type":"preload","trial_index":4,"time_elapsed":14944,"internal_node_id":"0.0-4.0"},{"rt":281,"stimulus":"tutorial/task_familiarization_images/part 1/1_N300_K170_cliqueRight_question1.PNG","response":" ","trial_type":"image-keyboard-response","trial_index":5,"time_elapsed":15227,"internal_node_id":"0.0-5.0"},{"rt":294,"stimulus":"tutorial/task_familiarization_images/part 1/2_N300_K170_cliqueRight_question2.PNG","response":" ","trial_type":"image-keyboard-response","trial_index":6,"time_elapsed":15522,"internal_node_id":"0.0-6.0"},{"rt":1300,"stimulus":"tutorial/task_familiarization_images/part 1/3_N300_K170_cliqueRight_question3.PNG","response":"arrowleft","trial_type":"image-keyboard-response","trial_index":7,"time_elapsed":16824,"internal_node_id":"0.0-7.0"},{"rt":265,"stimulus":"tutorial/task_familiarization_images/part 1/4_N300_K170_cliqueRight_solution.PNG","response":" ","trial_type":"image-keyboard-response","trial_index":8,"time_elapsed":17090,"internal_node_id":"0.0-8.0"},{"rt":252,"stimulus":"tutorial/task_familiarization_images/part 1/5_N300_K120_cliqueRight_question1.PNG","response":" ","trial_type":"image-keyboard-response","trial_index":9,"time_elapsed":17344,"internal_node_id":"0.0-9.0"},{"rt":216,"stimulus":"tutorial/task_familiarization_images/part 1/6_N300_K120_cliqueRight_question2.PNG","response":" ","trial_type":"image-keyboard-response","trial_index":10,"time_elapsed":17562,"internal_node_id":"0.0-10.0"},{"rt":401,"stimulus":"tutorial/task_familiarization_images/part 1/7_N300_K120_cliqueRight_question3.PNG","response":"arrowleft","trial_type":"image-keyboard-response","trial_index":11,"time_elapsed":17964,"internal_node_id":"0.0-11.0"},{"rt":188,"stimulus":"tutorial/task_familiarization_images/part 1/8_N300_K120_cliqueRight_solution.PNG","response":" ","trial_type":"image-keyboard-response","trial_index":12,"time_elapsed":18155,"internal_node_id":"0.0-12.0"},{"rt":214,"stimulus":"tutorial/task_familiarization_images/part 1/9_N300_K90_cliqueLeft_question1.PNG","response":" ","trial_type":"image-keyboard-response","trial_index":13,"time_elapsed":18366,"internal_node_id":"0.0-13.0"},{"rt":211,"stimulus":"tutorial/task_familiarization_images/part 1/10_N300_K90_cliqueLeft_question2.PNG","response":" ","trial_type":"image-keyboard-response","trial_index":14,"time_elapsed":18578,"internal_node_id":"0.0-14.0"},{"rt":548,"stimulus":"tutorial/task_familiarization_images/part 1/11_N300_K90_cliqueLeft_question3.PNG","response":"arrowleft","trial_type":"image-keyboard-response","trial_index":15,"time_elapsed":19127,"internal_node_id":"0.0-15.0"},{"rt":229,"stimulus":"tutorial/task_familiarization_images/part 1/12_N300_K90_cliqueLeft_solution.PNG","response":" ","trial_type":"image-keyboard-response","trial_index":16,"time_elapsed":19357,"internal_node_id":"0.0-16.0"},{"rt":219,"stimulus":"tutorial/task_familiarization_images/part 1/13_N300_K140_cliqueLeft_question1.PNG","response":" ","trial_type":"image-keyboard-response","trial_index":17,"time_elapsed":19578,"internal_node_id":"0.0-17.0"},{"rt":205,"stimulus":"tutorial/task_familiarization_images/part 1/14_N300_K140_cliqueLeft_question2.PNG","response":" ","trial_type":"image-keyboard-response","trial_index":18,"time_elapsed":19784,"internal_node_id":"0.0-18.0"},{"rt":518,"stimulus":"tutorial/task_familiarization_images/part 1/15_N300_K140_cliqueLeft_question3.PNG","response":"arrowleft","trial_type":"image-keyboard-response","trial_index":19,"time_elapsed":20303,"internal_node_id":"0.0-19.0"},{"rt":314,"stimulus":"tutorial/task_familiarization_images/part 1/16_N300_K140_cliqueLeft_solution.PNG","response":" ","trial_type":"image-keyboard-response","trial_index":20,"time_elapsed":20619,"internal_node_id":"0.0-20.0"},{"rt":212,"stimulus":"tutorial/task_familiarization_images/part 1/17_N300_K70_cliqueRight_question1.PNG","response":" ","trial_type":"image-keyboard-response","trial_index":21,"time_elapsed":20832,"internal_node_id":"0.0-21.0"},{"rt":190,"stimulus":"tutorial/task_familiarization_images/part 1/18_N300_K70_cliqueRight_question2.PNG","response":" ","trial_type":"image-keyboard-response","trial_index":22,"time_elapsed":21023,"internal_node_id":"0.0-22.0"},{"rt":593,"stimulus":"tutorial/task_familiarization_images/part 1/19_N300_K70_cliqueRight_question3.PNG","response":"arrowright","trial_type":"image-keyboard-response","trial_index":23,"time_elapsed":21618,"internal_node_id":"0.0-23.0"},{"rt":204,"stimulus":"tutorial/task_familiarization_images/part 1/20_N300_K70_cliqueRight_solution.PNG","response":" ","trial_type":"image-keyboard-response","trial_index":24,"time_elapsed":21823,"internal_node_id":"0.0-24.0"},{"rt":200,"stimulus":"tutorial/task_familiarization_images/part 1/21_N300_K100_cliqueLeft_question1.PNG","response":" ","trial_type":"image-keyboard-response","trial_index":25,"time_elapsed":22025,"internal_node_id":"0.0-25.0"},{"rt":195,"stimulus":"tutorial/task_familiarization_images/part 1/22_N300_K100_cliqueLeft_question2.PNG","response":" ","trial_type":"image-keyboard-response","trial_index":26,"time_elapsed":22222,"internal_node_id":"0.0-26.0"},{"rt":396,"stimulus":"tutorial/task_familiarization_images/part 1/23_N300_K100_cliqueLeft_question3.PNG","response":"arrowleft","trial_type":"image-keyboard-response","trial_index":27,"time_elapsed":22619,"internal_node_id":"0.0-27.0"},{"rt":220,"stimulus":"tutorial/task_familiarization_images/part 1/24_N300_K100_cliqueLeft_solution.PNG","response":" ","trial_type":"image-keyboard-response","trial_index":28,"time_elapsed":22841,"internal_node_id":"0.0-28.0"},{"success":true,"timeout":false,"failed_images":[],"failed_audio":[],"failed_video":[],"trial_type":"preload","trial_index":29,"time_elapsed":22872,"internal_node_id":"0.0-29.0"},{"rt":172,"stimulus":"tutorial/task_familiarization_images/part 2/1_300_120_cliqueLeft_withFeedback_1.PNG","response":" ","trial_type":"image-keyboard-response","trial_index":30,"time_elapsed":23045,"internal_node_id":"0.0-30.0"},{"rt":208,"stimulus":"tutorial/task_familiarization_images/part 2/2_300_120_cliqueLeft_withFeedback_2.PNG","response":" ","trial_type":"image-keyboard-response","trial_index":31,"time_elapsed":23254,"internal_node_id":"0.0-31.0"},{"rt":688,"stimulus":"tutorial/task_familiarization_images/part 2/3_300_120_cliqueLeft_withFeedback_3.PNG","response":"arrowleft","trial_type":"image-keyboard-response","trial_index":32,"time_elapsed":23943,"internal_node_id":"0.0-32.0"},{"rt":206,"stimulus":"tutorial/task_familiarization_images/part 2/4_300_120_cliqueLeft_withFeedback_solution.PNG","response":" ","trial_type":"image-keyboard-response","trial_index":33,"time_elapsed":24151,"internal_node_id":"0.0-33.0"},{"rt":219,"stimulus":"tutorial/task_familiarization_images/part 2/5_300_120_cliqueLeft_withFeedback_correctAnswer.PNG","response":" ","trial_type":"image-keyboard-response","trial_index":34,"time_elapsed":24372,"internal_node_id":"0.0-34.0"},{"rt":205,"stimulus":"tutorial/task_familiarization_images/part 2/6_300_95_cliqueRight_withFeedback_1.PNG","response":" ","trial_type":"image-keyboard-response","trial_index":35,"time_elapsed":24577,"internal_node_id":"0.0-35.0"},{"rt":186,"stimulus":"tutorial/task_familiarization_images/part 2/7_300_95_cliqueRight_withFeedback_2.PNG","response":" ","trial_type":"image-keyboard-response","trial_index":36,"time_elapsed":24779,"internal_node_id":"0.0-36.0"},{"rt":411,"stimulus":"tutorial/task_familiarization_images/part 2/8_300_95_cliqueRight_withFeedback_3.PNG","response":"arrowright","trial_type":"image-keyboard-response","trial_index":37,"time_elapsed":25193,"internal_node_id":"0.0-37.0"},{"rt":197,"stimulus":"tutorial/task_familiarization_images/part 2/9_300_95_cliqueRight_withFeedback_solution.PNG","response":" ","trial_type":"image-keyboard-response","trial_index":38,"time_elapsed":25390,"internal_node_id":"0.0-38.0"},{"rt":186,"stimulus":"tutorial/task_familiarization_images/part 2/10_300_95_cliqueRight_withFeedback_correctAnswer.PNG","response":" ","trial_type":"image-keyboard-response","trial_index":39,"time_elapsed":25577,"internal_node_id":"0.0-39.0"},{"rt":201,"stimulus":"tutorial/task_familiarization_images/part 2/11_300_100_cliqueLeft_withFeedback_1.PNG","response":" ","trial_type":"image-keyboard-response","trial_index":40,"time_elapsed":25779,"internal_node_id":"0.0-40.0"},{"rt":206,"stimulus":"tutorial/task_familiarization_images/part 2/12_300_100_cliqueLeft_withFeedback_2.PNG","response":" ","trial_type":"image-keyboard-response","trial_index":41,"time_elapsed":25986,"internal_node_id":"0.0-41.0"},{"rt":348,"stimulus":"tutorial/task_familiarization_images/part 2/13_300_100_cliqueLeft_withFeedback_3.PNG","response":"arrowleft","trial_type":"image-keyboard-response","trial_index":42,"time_elapsed":26351,"internal_node_id":"0.0-42.0"},{"rt":206,"stimulus":"tutorial/task_familiarization_images/part 2/14_300_100_cliqueLeft_solution.PNG","response":" ","trial_type":"image-keyboard-response","trial_index":43,"time_elapsed":26559,"internal_node_id":"0.0-43.0"},{"rt":191,"stimulus":"tutorial/task_familiarization_images/part 2/15_300_100_cliqueLeft_correctAnswer.PNG","response":" ","trial_type":"image-keyboard-response","trial_index":44,"time_elapsed":26750,"internal_node_id":"0.0-44.0"},{"view_history":[{"page_index":0,"viewing_time":203}],"rt":204,"trial_type":"instructions","trial_index":45,"time_elapsed":26955,"internal_node_id":"0.0-45.0"},{"rt":728,"response":" ","nodesOrdering":[236,295,243,231,159,67,205,270,95,221,61,216,208,237,199,111,35,268,33,133,265,131,162,234,47,39,72,285,113,100,168,215,186,261,191,11,36,173,219,278,112,125,202,143,27,87,78,48,110,249,73,262,0,59,294,201,298,271,194,222,207,230,166,188,84,142,138,28,290,74,155,227,145,98,244,53,79,45,184,63,274,273,178,1,43,76,121,24,232,147,16,229,279,49,152,12,137,70,252,132,220,181,44,260,196,241,120,8,185,82,126,81,287,136,224,212,242,37,223,282,193,175,68,172,182,46,144,206,30,165,139,167,233,106,264,179,240,5,169,258,101,3,276,297,183,280,156,20,218,102,22,170,29,94,17,34,253,245,267,275,75,153,293,86,25,195,135,10,38,41,161,130,71,93,4,96,91,257,200,263,256,140,254,246,115,114,154,225,292,204,19,281,164,177,116,69,277,105,54,32,198,150,214,92,210,146,190,259,176,55,109,51,226,141,158,209,235,18,64,99,239,228,149,163,65,251,148,66,9,272,192,213,31,77,13,52,107,117,124,21,127,119,57,85,104,14,203,42,134,80,15,189,296,123,97,250,60,26,2,23,289,284,83,288,6,157,122,50,248,283,7,160,62,171,211,40,90,56,247,269,238,118,255,108,89,286,266,174,58,299,197,128,129,217,187,88,180,103,291,151],"cliqueSize":200,"correctResponse":"arrowleft","presentationNumber":0,"trial_type":"canvas-keyboard-response","trial_index":46,"time_elapsed":27833,"internal_node_id":"0.0-46.0-0.0-0.0"},{"rt":343,"response":" ","nodesOrdering":[64,117,159,51,201,112,58,249,74,85,144,142,3,128,11,241,130,62,255,168,16,160,12,82,172,100,294,234,209,5,253,264,40,158,237,76,187,266,281,244,95,298,75,285,267,116,189,25,18,296,149,148,61,269,69,166,50,217,66,206,229,79,118,73,136,96,99,282,20,38,123,178,213,24,165,259,27,283,239,297,151,154,175,274,179,273,250,238,199,205,4,295,243,30,107,197,67,188,84,81,60,122,225,181,157,10,139,49,292,134,260,52,146,23,54,190,103,44,204,126,39,13,55,167,290,258,263,80,155,14,289,48,265,202,186,251,248,278,223,91,87,129,203,121,33,127,236,111,102,77,104,173,8,2,164,1,42,59,252,180,145,70,21,219,275,120,235,89,65,207,156,72,124,9,200,22,6,36,161,92,97,141,224,271,193,150,284,0,222,226,171,291,135,83,279,63,286,105,15,143,110,86,47,262,101,31,53,256,19,162,182,153,137,277,119,169,288,88,214,228,94,32,147,247,177,56,37,210,90,125,7,133,242,109,163,45,98,41,108,257,299,46,218,227,17,152,192,57,176,28,268,184,276,170,106,183,233,280,196,208,215,113,194,185,240,272,191,78,245,211,254,198,174,287,293,212,114,93,221,43,138,26,232,71,261,230,131,34,132,140,68,246,195,29,115,216,231,35,220,270],"cliqueSize":200,"correctResponse":"arrowleft","presentationNumber":0,"trial_type":"canvas-keyboard-response","trial_index":47,"time_elapsed":28297,"internal_node_id":"0.0-46.1-0.1-0.1"},{"rt":354,"response":" ","nodesOrdering":[20,70,9,155,111,153,140,71,123,166,97,15,208,168,205,121,113,192,141,7,67,148,266,262,282,21,171,58,92,199,152,93,220,160,137,54,1,197,57,251,65,136,264,76,175,114,206,22,131,30,4,216,94,116,229,244,104,180,154,277,234,247,135,24,34,253,172,62,191,276,77,235,272,209,124,150,177,40,265,178,38,291,268,258,260,215,219,278,89,225,159,119,98,169,292,10,195,59,73,240,222,286,224,174,239,90,193,66,156,189,252,129,279,170,226,261,246,118,263,183,25,149,82,298,88,218,201,227,288,101,19,182,108,287,23,296,138,132,223,173,39,144,231,203,63,161,273,188,79,3,117,145,100,52,202,91,74,87,157,125,176,68,29,107,47,12,115,81,200,283,72,133,299,280,213,212,13,271,163,126,41,267,42,293,243,190,27,44,284,245,242,297,86,233,26,295,18,2,28,147,33,8,237,128,75,274,32,257,50,60,211,83,269,16,196,214,275,238,290,165,164,55,103,14,85,11,142,56,281,256,179,186,105,84,158,217,31,102,185,139,95,0,210,230,96,106,127,61,259,17,241,130,5,254,51,187,6,221,285,69,109,249,255,48,46,151,36,250,112,167,207,184,64,270,134,204,236,181,43,198,45,49,99,194,248,294,289,80,228,122,162,37,146,143,35,53,232,120,78,110],"cliqueSize":200,"correctResponse":"arrowleft","presentationNumber":0,"trial_type":"canvas-keyboard-response","trial_index":48,"time_elapsed":28770,"internal_node_id":"0.0-46.2-0.2-0.2"},{"rt":435,"response":" ","nodesOrdering":[222,17,192,203,32,293,154,78,18,261,38,225,2,49,72,12,43,134,187,115,198,233,202,129,16,243,199,175,136,247,149,104,111,66,242,162,77,159,130,121,59,153,34,193,186,165,158,21,15,88,291,98,22,214,283,26,190,132,221,118,208,166,157,179,14,29,100,184,284,282,294,238,290,142,297,240,135,189,7,241,155,123,279,44,210,209,6,234,92,200,298,126,287,127,177,55,87,281,219,150,197,183,101,248,299,246,20,263,191,63,80,151,40,90,69,102,216,252,227,116,3,31,81,51,207,257,11,196,85,113,152,250,223,253,76,33,260,262,237,84,19,194,264,103,139,64,178,96,70,167,107,62,36,41,270,215,236,267,168,206,217,147,275,74,35,278,273,71,211,24,266,53,172,269,110,212,23,105,5,42,232,213,120,8,296,181,224,119,82,67,259,75,46,280,128,146,9,122,47,10,39,57,125,73,28,25,239,272,95,218,27,169,1,286,244,133,56,52,79,4,13,54,265,255,131,91,170,68,258,97,164,143,180,249,245,161,285,0,137,201,229,173,45,58,48,30,114,231,220,156,188,99,230,251,228,205,144,61,182,277,83,268,109,288,271,140,145,185,254,89,256,138,295,160,37,195,289,65,171,274,86,176,141,292,106,117,204,93,235,94,174,112,226,148,276,163,50,124,108,60],"cliqueSize":200,"correctResponse":"arrowleft","presentationNumber":0,"trial_type":"canvas-keyboard-response","trial_index":49,"time_elapsed":29320,"internal_node_id":"0.0-46.3-0.3-0.3"},{"rt":379,"response":"arrowright","nodesOrdering":[147,9,157,181,90,277,270,149,76,224,153,13,205,203,114,204,120,43,255,57,276,117,185,227,16,8,35,252,93,264,20,188,36,136,142,19,77,104,290,146,22,62,212,214,299,95,85,195,101,65,33,75,97,218,285,141,202,254,196,274,34,58,52,248,249,189,268,26,280,46,69,68,137,162,207,286,178,239,298,158,193,269,83,132,173,128,4,89,121,148,221,198,41,297,208,55,25,166,51,241,88,150,237,232,165,253,194,98,258,18,219,3,240,27,61,275,99,107,125,234,129,7,28,116,170,122,39,246,135,63,171,245,291,191,143,210,91,262,81,30,126,155,70,251,151,206,23,84,197,293,73,72,71,45,54,169,186,59,1,44,2,261,119,96,80,38,115,21,211,296,14,48,174,292,139,134,50,192,273,287,295,31,5,17,259,138,37,247,74,106,10,145,180,66,15,111,42,272,265,24,47,187,130,108,102,124,235,244,201,279,109,223,215,281,152,231,217,103,118,53,163,133,190,161,131,200,282,294,64,82,92,6,199,29,238,250,160,220,100,263,257,156,230,267,176,140,144,233,159,179,288,56,243,283,105,78,172,94,127,236,86,0,226,271,40,216,164,167,222,12,278,32,123,209,184,112,60,242,113,182,79,256,183,67,228,284,154,110,266,11,49,229,177,168,289,213,175,225,87,260],"cliqueSize":200,"correctResponse":"arrowleft","correctnessOfResponse":false,"presentationNumber":0,"trial_type":"canvas-keyboard-response","trial_index":50,"time_elapsed":29819,"internal_node_id":"0.0-46.4-0.4-0.4"},{"rt":870,"response":"arrowright","nodesOrdering":[200,147,142,253,49,70,256,144,298,234,281,208,205,280,212,243,198,30,112,44,246,92,10,61,202,84,250,99,271,267,136,249,258,81,283,143,268,161,1,235,227,96,130,181,189,177,73,100,209,45,276,149,162,286,16,71,251,288,50,14,270,21,213,157,109,232,120,138,40,284,184,132,263,133,259,215,244,106,43,180,175,55,102,135,52,166,228,89,226,275,252,98,22,95,42,111,8,273,124,293,57,261,236,154,48,24,60,241,87,97,127,224,66,240,191,185,4,54,114,125,36,47,247,186,107,255,129,218,182,56,101,262,41,2,266,158,163,278,15,195,171,231,229,214,193,204,225,295,160,17,26,134,11,62,88,248,151,170,85,117,150,210,46,233,9,108,165,156,90,152,285,69,169,116,94,74,39,115,257,238,260,219,118,145,242,291,68,53,38,196,153,72,245,194,58,172,206,192,91,77,64,32,176,221,277,13,137,294,274,128,103,123,146,7,297,183,197,113,164,211,29,282,63,201,82,35,0,230,148,216,33,279,110,254,272,217,139,34,141,237,292,3,12,222,122,105,131,269,207,121,18,6,264,75,126,190,83,239,20,167,296,289,27,19,155,25,188,159,299,290,203,65,140,265,220,5,59,287,76,51,79,93,174,178,104,187,86,80,119,173,199,31,67,28,23,78,223,179,168,37],"cliqueSize":190,"correctResponse":"arrowright","correctnessOfResponse":true,"presentationNumber":1,"trial_type":"canvas-keyboard-response","trial_index":51,"time_elapsed":30808,"internal_node_id":"0.0-47.0-0.0-0.0"},{"rt":763,"response":"arrowright","nodesOrdering":[124,140,255,258,19,61,88,286,261,109,57,192,194,260,266,5,42,26,45,138,226,137,243,250,85,256,272,179,75,279,141,269,191,277,99,231,34,152,27,144,59,32,207,149,212,176,195,173,220,189,6,70,178,87,55,183,219,177,33,36,228,238,204,153,287,262,227,37,273,290,248,68,89,119,120,95,131,58,111,232,8,284,91,63,13,294,175,126,292,282,79,112,234,116,56,203,230,101,60,216,50,64,2,121,181,41,114,72,295,127,151,293,71,190,97,233,106,167,241,14,213,40,158,129,263,21,188,92,206,49,254,135,108,197,283,242,16,270,240,94,143,185,196,268,128,281,210,285,20,98,239,208,150,100,200,133,136,186,1,117,222,31,86,163,187,160,184,7,157,48,148,169,271,218,224,82,130,288,201,107,155,291,280,296,44,38,198,180,54,73,147,215,247,168,156,142,146,298,209,115,171,4,113,3,214,122,96,299,15,18,134,76,25,205,24,46,235,162,221,105,257,246,81,237,93,74,164,211,244,182,170,12,123,80,39,297,165,35,253,47,202,9,199,161,264,0,159,52,67,249,62,17,172,145,166,154,276,236,22,225,289,51,78,84,125,274,275,265,110,66,223,217,193,278,43,83,69,104,229,29,102,139,10,252,259,23,77,118,267,65,11,53,245,30,28,251,90,103,174,132],"cliqueSize":180,"correctResponse":"arrowright","correctnessOfResponse":true,"presentationNumber":2,"trial_type":"canvas-keyboard-response","trial_index":52,"time_elapsed":31690,"internal_node_id":"0.0-48.0-0.0-0.0"},{"rt":766,"response":"arrowleft","nodesOrdering":[74,180,262,37,109,297,115,68,47,50,199,129,64,22,280,93,9,260,202,179,291,31,53,220,83,206,71,75,279,13,58,284,182,130,122,221,236,94,79,108,10,139,78,185,208,103,257,125,63,183,48,11,118,106,46,266,43,73,153,278,226,276,147,167,296,214,44,89,136,242,151,289,293,5,261,33,16,187,141,163,76,189,194,124,299,49,137,67,138,156,8,171,256,100,191,270,140,34,155,3,190,24,54,292,258,169,215,175,12,234,295,230,105,259,92,239,104,274,281,168,117,51,84,217,286,249,99,56,224,205,233,240,216,188,228,41,35,229,131,211,176,204,6,123,113,157,282,154,133,285,15,263,101,195,177,85,288,164,102,227,32,82,126,181,38,237,172,18,247,232,88,111,70,28,166,150,251,243,98,162,135,269,225,200,283,36,132,59,248,14,86,107,95,213,55,65,120,271,26,231,246,287,201,268,197,27,145,192,272,96,23,39,223,290,149,0,142,277,127,193,244,238,170,241,57,253,121,294,81,66,152,178,2,196,235,159,210,119,17,52,134,116,60,165,144,128,30,254,218,80,29,252,25,209,174,184,42,203,77,7,255,198,148,69,245,87,186,298,20,146,61,212,114,250,91,222,173,40,160,219,273,62,275,112,158,19,72,264,90,21,97,161,4,207,265,1,267,143,45,110],"cliqueSize":170,"correctResponse":"arrowleft","correctnessOfResponse":true,"presentationNumber":3,"trial_type":"canvas-keyboard-response","trial_index":53,"time_elapsed":32573,"internal_node_id":"0.0-49.0-0.0-0.0"},{"rt":787,"response":"arrowright","nodesOrdering":[218,17,122,293,47,49,8,107,108,230,43,261,229,209,187,112,238,251,100,19,50,84,274,154,167,87,166,288,52,292,40,134,129,125,247,99,240,110,194,13,189,45,101,90,46,135,152,82,208,27,62,222,253,61,199,219,205,37,267,76,294,263,155,278,71,89,201,18,266,35,250,170,20,7,131,291,182,140,163,236,142,235,290,268,287,179,12,171,75,57,188,23,175,223,243,256,10,63,244,33,231,280,299,265,141,66,158,149,26,120,51,281,28,124,74,273,59,168,133,275,9,148,248,259,147,102,53,1,42,272,285,128,69,146,5,211,86,114,234,169,183,181,60,73,176,138,207,239,21,206,39,226,2,277,38,157,103,123,126,264,130,58,190,180,186,117,276,153,30,178,196,173,241,195,72,233,115,295,22,245,284,270,127,144,160,212,198,221,257,162,67,282,297,56,254,6,271,34,216,92,24,279,137,98,64,14,121,224,16,220,83,249,116,97,65,242,214,215,55,88,54,159,29,78,156,36,203,213,232,172,298,77,132,151,192,225,246,81,109,3,197,4,25,185,269,193,111,15,70,289,96,255,139,227,32,85,283,44,106,262,200,164,165,79,177,48,286,119,161,174,0,31,237,204,217,80,210,252,191,91,105,228,118,143,202,113,150,95,296,93,258,41,68,104,11,94,145,260,136,184],"cliqueSize":160,"correctResponse":"arrowright","correctnessOfResponse":true,"presentationNumber":4,"trial_type":"canvas-keyboard-response","trial_index":54,"time_elapsed":33475,"internal_node_id":"0.0-50.0-0.0-0.0"},{"rt":779,"response":"arrowright","nodesOrdering":[98,280,14,124,188,277,158,202,291,109,157,85,220,59,12,222,261,52,48,105,61,288,171,170,233,93,58,65,282,126,273,219,94,239,134,33,100,37,38,74,186,289,120,252,129,118,150,151,281,56,165,95,92,104,69,276,215,4,77,26,253,111,254,278,136,88,257,54,116,164,169,258,146,225,22,182,290,279,221,20,8,213,45,204,15,149,140,269,181,71,184,35,163,141,194,5,148,207,66,24,292,246,99,87,237,208,227,293,230,283,297,16,267,200,103,232,131,72,41,226,152,228,121,241,132,245,13,63,2,295,174,39,142,201,6,285,172,229,193,218,125,287,127,46,32,250,236,294,259,189,161,211,198,17,298,224,64,271,197,9,68,80,183,28,159,162,29,203,247,265,275,274,123,196,255,115,57,286,79,231,96,206,67,108,135,263,190,199,42,23,145,176,130,214,296,117,84,175,242,34,191,128,70,53,270,90,91,49,139,264,110,187,244,178,73,153,107,147,62,266,248,180,234,138,192,76,122,114,83,185,143,51,160,209,78,177,11,155,167,18,113,31,50,137,299,166,101,268,272,75,133,30,3,243,81,223,144,7,44,195,212,82,21,168,36,210,1,19,249,97,173,154,86,0,256,238,235,260,251,43,205,179,40,89,60,55,47,106,119,112,27,156,240,102,262,217,284,25,10,216],"cliqueSize":150,"correctResponse":"arrowright","correctnessOfResponse":true,"presentationNumber":5,"trial_type":"canvas-keyboard-response","trial_index":55,"time_elapsed":34388,"internal_node_id":"0.0-51.0-0.0-0.0"},{"rt":837,"response":"arrowleft","nodesOrdering":[249,234,71,141,127,193,4,91,174,103,81,6,27,20,13,176,62,95,134,162,37,146,31,179,258,151,3,274,82,96,192,239,49,35,97,273,227,255,259,264,26,55,2,157,84,83,204,209,280,266,74,8,238,25,67,19,216,79,165,189,68,177,206,85,180,164,142,208,125,285,233,45,53,195,163,289,106,36,168,93,276,198,56,152,116,282,190,277,275,143,34,30,257,32,28,5,11,145,172,69,44,212,248,105,61,109,60,230,298,138,76,231,29,38,169,42,184,100,137,75,107,52,218,288,201,131,16,219,223,291,167,70,202,90,294,50,194,63,92,156,240,182,78,171,286,124,268,159,136,292,203,267,23,144,40,115,283,256,271,299,110,217,155,64,222,224,43,178,253,48,205,181,215,250,260,263,89,235,265,1,185,160,154,284,170,241,247,147,117,80,251,186,0,270,17,47,87,228,278,183,120,213,188,214,94,225,99,175,66,57,199,287,24,254,149,200,101,21,73,210,108,15,269,139,7,129,196,77,102,173,58,51,166,272,221,252,197,132,122,261,22,59,226,133,118,128,123,243,10,54,158,112,14,148,297,262,46,237,242,293,86,33,229,119,232,130,126,281,246,296,9,244,72,41,39,236,140,18,114,279,211,12,104,88,220,191,65,207,295,113,290,161,121,245,98,187,150,111,135,153],"cliqueSize":140,"correctResponse":"arrowleft","correctnessOfResponse":true,"presentationNumber":6,"trial_type":"canvas-keyboard-response","trial_index":56,"time_elapsed":35339,"internal_node_id":"0.0-52.0-0.0-0.0"},{"rt":691,"response":"arrowright","nodesOrdering":[282,113,269,286,167,71,190,27,12,104,298,276,106,148,258,256,42,170,15,126,180,186,222,234,245,68,250,103,89,6,238,239,92,227,174,29,200,246,59,196,90,62,87,265,31,293,64,37,194,107,205,214,139,268,179,278,193,173,151,74,61,289,159,209,119,137,230,172,79,280,295,72,156,96,219,19,236,141,273,195,206,254,69,176,95,143,201,291,251,18,228,188,101,244,49,210,32,262,112,94,48,160,183,76,275,296,285,50,10,142,4,218,83,270,38,118,281,84,46,13,28,215,223,63,198,121,2,229,150,260,86,21,56,138,93,226,14,207,290,249,202,124,60,78,123,57,163,149,8,288,231,58,259,165,217,23,82,99,39,102,248,197,255,145,109,271,294,292,47,122,247,253,53,135,3,85,52,127,166,272,279,70,153,140,20,133,155,45,283,146,235,134,242,11,240,157,34,162,274,261,30,40,75,33,192,25,203,263,168,237,91,5,147,81,161,66,213,191,130,120,184,129,164,128,154,187,252,144,224,0,51,88,77,17,73,131,55,111,232,177,80,16,67,264,175,136,169,26,266,105,35,208,287,185,114,257,158,299,97,98,189,100,108,24,297,110,225,211,241,220,125,44,277,22,171,181,204,216,132,41,1,152,117,233,182,43,178,7,65,116,221,115,212,284,9,54,36,199,243,267],"cliqueSize":130,"correctResponse":"arrowright","correctnessOfResponse":true,"presentationNumber":7,"trial_type":"canvas-keyboard-response","trial_index":57,"time_elapsed":36160,"internal_node_id":"0.0-53.0-0.0-0.0"},{"rt":888,"response":"arrowleft","nodesOrdering":[173,254,4,164,73,96,111,109,84,270,151,243,138,278,221,250,192,246,37,101,93,108,181,22,161,284,14,34,82,252,118,52,0,299,182,296,194,94,275,215,196,189,154,287,42,213,176,237,119,227,20,158,293,248,172,78,80,282,292,70,144,155,211,193,220,68,168,231,79,205,249,185,58,186,281,267,33,50,41,128,262,136,19,75,147,69,98,187,204,140,165,149,295,77,191,240,122,71,117,18,131,199,203,54,48,91,125,61,264,184,188,23,179,137,100,141,123,286,85,289,297,55,166,124,65,74,38,44,218,269,36,99,148,285,3,241,143,198,212,257,83,245,24,110,13,268,273,49,16,60,63,247,32,167,11,263,290,89,97,43,261,7,217,159,104,178,169,127,208,130,31,150,6,152,279,142,163,39,235,134,200,76,51,195,132,157,121,190,10,57,146,197,202,5,274,30,228,35,53,283,272,253,95,1,103,234,102,59,21,133,120,92,88,225,280,129,209,46,206,26,216,162,236,223,258,170,207,86,72,116,67,135,29,256,145,175,265,232,8,222,229,40,277,259,87,174,242,233,255,25,177,210,224,66,2,28,260,90,112,288,113,64,219,62,214,226,201,276,291,171,105,238,126,244,106,298,107,271,115,17,9,47,251,139,230,266,27,294,153,160,180,15,239,114,56,81,156,45,183,12],"cliqueSize":120,"correctResponse":"arrowleft","correctnessOfResponse":true,"presentationNumber":8,"trial_type":"canvas-keyboard-response","trial_index":58,"time_elapsed":37170,"internal_node_id":"0.0-54.0-0.0-0.0"},{"rt":789,"response":"arrowright","nodesOrdering":[280,91,138,61,199,215,46,107,24,68,36,248,157,270,64,98,27,169,19,197,276,273,148,291,87,289,130,86,210,1,129,299,160,112,298,70,151,25,3,117,263,234,241,186,92,119,225,76,177,97,77,113,202,266,153,57,171,28,246,178,182,16,120,244,99,185,85,168,236,13,52,6,217,20,230,54,125,228,116,103,162,214,131,179,144,260,258,287,269,154,253,247,170,38,95,12,14,200,195,39,17,128,297,104,40,79,132,296,34,37,45,194,264,281,277,22,136,110,284,167,140,224,184,106,15,183,90,226,114,279,111,223,4,286,44,252,93,272,96,206,60,72,122,278,152,42,261,259,208,150,192,205,158,135,243,88,235,176,102,63,204,50,172,83,82,257,222,134,55,89,48,221,143,84,59,249,18,29,31,109,293,80,53,245,65,267,198,141,146,156,240,155,290,163,81,201,295,233,124,108,188,251,285,216,133,175,189,33,294,220,231,242,207,43,71,219,292,47,11,115,275,191,256,174,211,58,166,213,209,67,66,126,62,212,159,190,187,196,239,26,73,123,9,238,101,30,127,56,5,21,180,35,147,164,165,7,265,254,255,250,283,173,181,268,121,193,145,139,10,229,274,161,237,100,0,2,8,51,94,23,32,218,69,271,288,227,75,78,232,282,41,105,49,74,118,262,203,137,149,142],"cliqueSize":110,"correctResponse":"arrowleft","correctnessOfResponse":false,"presentationNumber":9,"trial_type":"canvas-keyboard-response","trial_index":59,"time_elapsed":38085,"internal_node_id":"0.0-55.0-0.0-0.0"},{"rt":1044,"response":"arrowleft","nodesOrdering":[165,74,210,141,229,134,25,296,288,117,143,285,1,44,225,116,133,137,174,221,37,160,49,200,123,271,207,127,217,92,11,97,188,291,177,2,6,63,145,195,190,84,176,7,157,17,233,258,185,86,155,231,103,236,252,21,80,129,64,256,36,269,201,169,144,232,220,275,276,14,76,15,104,273,9,88,280,191,114,245,102,243,40,179,31,295,128,168,166,293,212,164,178,42,95,79,264,65,139,171,204,249,108,299,22,68,55,30,250,198,101,282,205,130,234,152,186,70,59,12,106,47,4,66,48,82,33,60,159,259,75,135,268,194,235,118,230,262,213,32,41,43,228,290,270,208,90,57,175,58,211,192,142,237,51,223,110,283,214,38,279,50,251,46,0,247,39,89,193,126,292,260,72,98,151,255,20,227,242,240,78,45,67,197,62,13,29,85,196,241,161,261,93,81,253,119,150,140,289,34,23,206,99,132,109,54,73,16,215,112,5,265,224,238,254,83,105,10,184,180,226,257,28,136,100,52,121,298,26,172,274,286,27,154,266,24,153,239,183,209,138,122,18,69,278,281,219,147,203,131,173,199,156,87,56,277,163,287,94,61,125,113,35,189,120,71,3,19,146,216,202,181,248,53,244,182,96,115,297,8,158,284,263,170,267,107,124,246,91,222,294,77,272,111,167,218,149,187,148,162],"cliqueSize":100,"correctResponse":"arrowleft","correctnessOfResponse":true,"presentationNumber":10,"trial_type":"canvas-keyboard-response","trial_index":60,"time_elapsed":39245,"internal_node_id":"0.0-56.0-0.0-0.0"},{"rt":731,"response":" ","nodesOrdering":[166,257,184,297,15,197,31,47,37,18,185,164,135,75,104,234,4,140,195,73,10,111,113,158,60,36,288,261,175,144,161,162,200,279,98,43,28,163,179,88,139,214,168,45,275,203,294,283,219,286,237,83,56,253,106,30,274,263,270,79,74,232,199,103,148,206,23,211,99,92,119,252,194,127,157,96,176,154,244,192,138,183,218,72,292,284,20,34,225,171,131,167,16,24,40,248,71,255,246,249,216,238,54,173,46,299,102,118,271,289,221,17,53,281,129,269,134,250,42,266,191,85,220,25,132,61,44,159,63,290,202,169,13,189,12,226,22,108,112,224,64,156,3,147,152,273,122,14,239,52,260,174,155,190,215,51,69,93,188,256,212,251,123,55,172,229,77,151,277,262,141,94,213,32,87,38,105,276,265,27,120,97,205,182,33,90,124,80,145,125,231,133,207,57,109,227,217,282,285,201,241,187,48,76,150,29,126,86,9,114,70,293,186,208,95,209,26,115,49,67,110,6,19,259,50,2,21,153,143,0,89,1,128,291,82,240,62,65,11,235,81,230,268,35,66,137,59,181,178,204,39,228,121,267,84,160,245,58,236,243,210,247,177,68,272,198,296,41,193,130,242,254,165,264,136,295,196,107,5,8,149,287,223,117,91,142,233,278,258,101,146,280,100,298,78,170,222,180,116,7],"cliqueSize":90,"correctResponse":"arrowleft","presentationNumber":11,"trial_type":"canvas-keyboard-response","trial_index":61,"time_elapsed":40106,"internal_node_id":"0.0-57.0-0.0-0.0"},{"rt":576,"response":" ","nodesOrdering":[249,275,110,168,54,201,107,19,262,0,64,67,177,270,220,296,55,208,225,156,243,139,71,51,65,77,167,271,8,251,261,103,189,53,255,299,122,292,109,276,295,173,258,214,97,144,4,205,128,74,198,194,68,289,10,233,130,297,15,235,239,48,56,178,153,9,242,88,234,174,81,106,186,253,172,3,145,79,193,236,46,61,246,108,158,218,238,197,291,90,165,31,75,52,285,180,164,50,290,203,207,278,112,113,196,102,245,7,132,26,228,35,256,24,33,143,17,169,213,87,279,273,63,37,131,47,85,59,20,191,36,147,170,226,121,21,96,222,206,187,298,188,23,284,215,133,127,146,89,288,44,254,209,282,137,241,283,204,94,274,5,49,230,42,149,91,280,82,265,277,136,257,287,217,142,6,114,39,267,116,192,199,219,216,129,12,70,237,171,134,263,163,140,115,111,78,38,32,159,29,221,41,212,154,231,175,18,148,286,152,73,118,43,185,244,223,151,93,126,272,269,200,141,119,58,135,260,98,34,202,1,268,248,92,190,161,293,101,211,150,184,16,195,22,294,281,84,210,181,179,95,182,138,176,28,40,104,27,66,120,105,247,266,264,60,160,99,100,86,57,11,157,83,259,2,76,62,80,72,227,155,252,123,13,30,69,14,183,117,45,25,240,125,162,224,229,250,166,124,232],"cliqueSize":90,"correctResponse":"arrowleft","presentationNumber":11,"trial_type":"canvas-keyboard-response","trial_index":62,"time_elapsed":40802,"internal_node_id":"0.0-57.1-0.1-0.1"},{"rt":471,"response":"arrowleft","nodesOrdering":[170,87,70,180,142,36,155,135,18,66,147,130,226,21,228,198,107,31,151,101,22,253,20,58,99,235,100,208,0,15,276,296,216,220,183,254,270,247,68,103,157,224,48,238,126,38,260,282,237,225,195,92,32,148,144,184,248,176,47,233,27,242,152,283,64,172,174,50,60,30,206,137,289,110,269,45,127,266,118,7,3,34,111,161,69,76,221,171,129,120,125,285,41,256,119,234,121,4,138,164,57,229,182,191,294,223,188,55,241,200,209,178,17,77,217,252,42,97,133,295,114,186,279,1,56,24,162,102,83,272,203,201,259,153,98,167,26,240,250,53,62,71,28,158,43,251,65,154,46,131,96,222,211,116,243,81,290,122,12,39,297,187,128,52,2,8,134,246,139,194,44,280,59,239,150,23,5,244,287,140,109,231,9,54,262,232,264,33,292,192,14,230,173,91,84,275,6,288,51,267,169,88,199,93,82,29,185,212,74,159,94,160,73,213,197,166,245,10,257,13,115,104,112,90,79,286,105,210,25,293,214,281,218,205,204,168,249,284,89,49,132,146,291,177,278,85,108,298,95,75,165,67,136,268,277,145,149,263,72,271,19,274,196,202,227,175,86,236,193,255,40,37,78,265,219,117,273,179,35,261,113,215,11,258,190,63,163,189,299,16,80,123,156,181,61,143,207,141,124,106],"cliqueSize":90,"correctResponse":"arrowleft","correctnessOfResponse":true,"presentationNumber":11,"trial_type":"canvas-keyboard-response","trial_index":63,"time_elapsed":41400,"internal_node_id":"0.0-57.2-0.2-0.2"},{"rt":509,"response":" ","nodesOrdering":[251,99,101,87,292,49,60,46,126,106,242,288,94,122,267,245,163,80,222,73,115,167,110,249,96,74,70,276,273,109,67,124,134,86,178,208,218,5,201,79,212,108,221,271,207,119,57,199,243,169,184,229,285,38,269,125,97,51,264,159,135,235,40,71,84,179,37,130,144,203,1,296,143,181,132,250,248,4,283,11,164,83,219,141,104,52,41,152,121,85,32,268,238,260,78,255,261,225,247,257,56,171,95,145,293,127,120,0,42,69,114,20,17,279,137,112,294,174,36,236,290,155,172,231,230,35,183,226,180,82,185,190,177,228,282,196,259,252,8,18,275,223,297,254,161,64,14,66,21,147,204,50,168,158,154,146,239,166,33,9,187,111,195,118,227,198,116,117,48,103,277,240,213,289,136,193,31,3,262,244,284,170,2,107,12,24,234,39,113,202,189,256,68,286,91,138,281,7,192,188,100,160,128,28,211,140,280,258,72,220,131,30,265,232,25,43,150,139,194,153,129,165,270,142,210,182,298,246,272,81,63,59,217,295,27,75,266,16,62,205,6,162,19,291,13,55,224,209,191,23,65,90,173,47,10,186,175,76,34,206,215,133,88,44,197,299,89,200,157,278,53,61,237,233,29,148,216,98,15,274,58,149,263,287,214,123,176,102,105,92,22,156,241,45,54,26,77,93,151,253],"cliqueSize":80,"correctResponse":"arrowleft","presentationNumber":12,"trial_type":"canvas-keyboard-response","trial_index":64,"time_elapsed":42041,"internal_node_id":"0.0-58.0-0.0-0.0"},{"rt":450,"response":" ","nodesOrdering":[12,96,81,131,263,296,35,117,214,26,176,58,134,56,251,42,170,250,93,54,66,130,284,147,150,137,175,108,247,119,270,283,0,275,30,183,116,274,125,32,148,262,238,50,188,240,37,5,74,45,79,285,65,154,295,298,297,106,19,21,97,122,88,181,59,265,44,211,39,89,43,246,260,20,201,193,213,194,234,135,294,184,292,249,25,27,38,49,266,208,269,94,267,255,84,282,23,136,146,128,157,73,210,126,221,216,9,48,200,224,142,75,264,118,100,13,182,225,16,46,178,57,166,61,4,254,233,230,236,14,268,149,62,185,11,104,162,299,95,174,172,243,279,64,47,7,207,111,83,245,204,22,242,219,121,92,257,206,227,232,153,33,85,109,51,231,3,271,212,29,291,141,114,177,151,273,173,98,34,179,103,36,41,52,156,132,192,138,209,110,277,155,90,161,195,252,237,8,124,171,281,6,256,197,67,1,105,288,127,129,2,218,145,24,164,152,28,40,169,187,31,107,180,10,293,287,60,222,82,196,71,215,248,139,229,217,86,190,223,63,72,235,113,163,102,272,253,165,276,101,69,160,280,120,18,80,123,228,205,115,239,278,17,290,78,76,91,241,198,220,68,167,87,133,168,143,289,99,53,140,55,189,158,15,244,186,159,286,191,259,144,203,258,77,112,226,261,199,70,202],"cliqueSize":80,"correctResponse":"arrowleft","presentationNumber":12,"trial_type":"canvas-keyboard-response","trial_index":65,"time_elapsed":42630,"internal_node_id":"0.0-58.1-0.1-0.1"},{"rt":490,"response":" ","nodesOrdering":[176,185,298,171,5,27,70,76,210,4,35,254,42,153,67,84,265,267,204,248,259,291,100,195,68,85,207,131,293,104,168,41,165,203,8,77,119,272,142,223,130,15,292,126,277,243,270,116,202,152,228,125,212,62,217,111,83,288,129,286,11,122,276,219,299,138,218,230,269,244,3,95,199,110,53,249,160,89,59,52,79,262,283,242,54,57,231,256,49,97,113,201,46,107,58,264,82,273,112,268,135,279,65,25,37,173,253,90,17,114,139,73,13,187,216,132,157,238,174,88,74,163,295,208,36,209,22,234,224,78,12,72,143,252,24,40,197,275,9,120,44,294,75,278,241,87,164,69,149,169,188,102,287,30,221,281,99,158,80,16,233,109,240,251,10,215,103,205,147,166,236,134,64,145,198,194,45,20,190,60,235,34,98,290,148,200,260,274,50,186,1,63,86,26,151,227,81,192,175,133,29,179,6,170,266,141,33,167,229,2,0,285,161,178,183,222,48,155,108,55,182,189,137,93,31,162,239,213,184,127,105,140,7,177,123,146,106,289,261,136,232,19,94,61,284,121,32,255,118,226,38,47,280,91,282,246,14,115,297,128,124,257,43,92,220,101,245,96,154,172,191,206,156,214,18,296,117,51,21,271,71,56,196,28,39,250,225,159,23,263,150,211,180,237,66,144,181,258,193,247],"cliqueSize":80,"correctResponse":"arrowleft","presentationNumber":12,"trial_type":"canvas-keyboard-response","trial_index":66,"time_elapsed":43238,"internal_node_id":"0.0-58.2-0.2-0.2"},{"rt":490,"response":"arrowleft","nodesOrdering":[121,182,150,180,211,34,62,92,296,156,134,49,120,214,36,28,128,169,258,104,272,17,200,13,249,114,283,135,239,37,194,217,146,159,106,23,58,39,166,144,297,287,102,220,35,152,26,108,72,115,176,197,189,158,116,257,268,30,68,46,162,84,80,293,85,11,60,90,288,160,177,219,75,22,89,99,7,259,212,131,71,183,100,137,105,260,161,286,270,129,48,147,190,224,222,81,67,21,123,109,50,285,74,96,33,262,252,294,191,63,154,91,15,142,246,93,143,163,97,54,8,264,124,5,171,133,61,233,79,226,113,112,206,223,1,208,229,45,155,10,12,149,31,209,242,118,47,167,98,278,244,207,0,78,69,245,40,136,240,186,292,256,41,253,263,250,44,141,232,2,65,276,16,269,130,83,52,138,117,265,202,132,101,279,204,215,57,51,42,201,187,88,76,225,284,82,251,127,255,289,261,148,181,192,151,174,203,125,271,196,267,94,275,43,95,198,119,107,24,103,184,6,165,237,164,298,55,111,139,210,56,299,290,73,19,173,205,4,230,199,126,254,70,140,86,170,32,110,122,234,14,273,59,38,153,77,238,27,295,247,282,3,87,193,9,216,188,231,248,145,178,179,280,172,175,266,185,53,195,213,29,20,221,64,235,243,236,281,291,157,168,25,18,241,277,274,228,227,218,66],"cliqueSize":80,"correctResponse":"arrowleft","correctnessOfResponse":true,"presentationNumber":12,"trial_type":"canvas-keyboard-response","trial_index":67,"time_elapsed":43851,"internal_node_id":"0.0-58.3-0.3-0.3"},{"rt":475,"response":" ","nodesOrdering":[34,188,71,266,153,172,150,194,31,107,169,185,19,94,258,50,152,225,76,154,279,53,200,14,226,277,149,199,161,216,10,111,16,121,168,44,61,77,174,282,160,119,253,78,195,6,122,60,263,246,203,227,86,245,181,190,73,131,72,135,288,30,123,139,57,20,237,164,39,215,64,21,294,155,295,299,17,65,54,165,35,291,289,267,40,287,46,103,118,141,7,232,196,264,85,191,162,271,128,2,36,18,11,275,217,41,96,173,224,272,201,109,260,273,83,207,95,129,125,84,177,5,220,297,82,43,142,49,100,274,213,205,184,209,115,110,32,29,212,23,261,98,108,176,45,22,75,9,171,24,292,278,90,211,166,133,81,240,127,233,249,91,269,146,257,157,132,144,92,79,8,285,235,28,250,202,230,193,102,93,12,175,13,42,159,148,47,208,145,268,228,262,136,256,70,241,27,158,69,206,59,204,229,38,244,259,248,236,284,238,186,62,247,189,80,231,270,151,243,117,99,283,48,183,210,51,280,138,239,156,170,254,97,66,192,255,89,167,178,106,56,140,130,251,26,112,218,87,114,126,67,286,63,276,290,33,113,101,104,3,242,179,137,0,58,134,298,147,197,219,214,120,52,221,1,25,187,198,252,163,223,182,222,180,37,88,74,296,105,124,15,4,265,55,234,293,143,281,68,116],"cliqueSize":70,"correctResponse":"arrowright","presentationNumber":13,"trial_type":"canvas-keyboard-response","trial_index":68,"time_elapsed":44454,"internal_node_id":"0.0-59.0-0.0-0.0"},{"rt":470,"response":" ","nodesOrdering":[127,249,236,170,184,191,264,92,15,93,140,88,239,298,4,274,192,107,168,80,139,55,58,83,235,161,193,225,81,71,75,35,267,203,8,91,174,69,229,179,232,247,5,29,115,254,131,187,240,32,279,197,28,237,231,142,110,196,101,117,144,205,234,238,262,228,241,173,182,76,19,2,199,222,243,125,181,48,230,68,42,133,269,39,145,214,96,85,61,266,23,198,277,30,290,204,20,162,299,33,138,66,263,59,210,36,114,172,159,281,201,157,3,288,280,70,276,216,185,155,128,104,183,130,278,57,46,132,261,50,268,297,49,18,60,24,102,233,6,218,37,13,296,14,158,95,286,270,287,84,175,147,146,97,65,224,108,126,248,124,282,244,250,73,10,98,116,293,273,178,1,220,177,166,17,295,212,122,121,27,195,112,260,226,253,245,252,207,118,64,294,160,100,256,43,111,67,223,209,206,217,89,227,77,221,34,40,165,171,271,53,123,21,94,31,74,292,283,176,16,284,291,129,148,52,22,141,189,109,72,90,219,242,99,202,169,251,11,289,78,0,82,135,12,106,41,119,194,215,51,190,153,257,136,188,25,86,186,54,154,87,9,211,7,120,208,255,151,275,79,246,150,56,272,38,63,213,134,156,143,45,26,265,103,167,137,105,180,164,113,44,285,152,163,47,62,200,259,258,149],"cliqueSize":70,"correctResponse":"arrowright","presentationNumber":13,"trial_type":"canvas-keyboard-response","trial_index":69,"time_elapsed":45051,"internal_node_id":"0.0-59.1-0.1-0.1"},{"rt":481,"response":" ","nodesOrdering":[54,116,124,195,251,49,211,272,212,281,73,287,62,174,122,90,147,264,199,97,295,68,57,176,254,136,46,135,37,152,4,157,238,138,24,234,181,298,71,273,179,263,87,82,45,100,12,185,115,32,204,89,189,228,169,217,7,119,183,128,265,229,31,0,76,191,61,186,129,193,111,21,146,30,137,253,107,101,299,59,230,120,96,194,148,215,18,172,289,15,219,197,164,175,209,117,163,28,134,170,35,255,2,239,166,133,83,91,188,114,3,218,102,283,257,19,29,39,220,48,41,270,33,279,64,161,78,67,206,81,50,63,158,80,208,278,171,149,53,267,130,277,16,14,56,72,248,22,268,17,231,86,155,94,192,52,237,6,249,240,221,66,154,84,241,23,151,242,144,246,180,110,294,276,210,25,95,77,260,36,10,225,262,280,165,227,233,223,8,92,291,196,216,296,106,201,42,150,118,207,275,252,9,282,274,258,178,266,38,156,261,173,13,58,245,34,141,98,187,213,203,60,293,132,74,202,109,177,127,159,44,11,205,47,20,271,121,99,184,93,284,162,43,292,51,153,243,125,247,269,226,214,288,70,236,65,285,5,235,224,222,200,88,55,105,1,139,112,27,160,85,113,79,297,290,250,232,286,104,143,140,256,40,244,108,259,75,26,145,142,182,69,168,198,123,190,131,167,103,126],"cliqueSize":70,"correctResponse":"arrowright","presentationNumber":13,"trial_type":"canvas-keyboard-response","trial_index":70,"time_elapsed":45656,"internal_node_id":"0.0-59.2-0.2-0.2"},{"rt":886,"response":"arrowright","nodesOrdering":[109,97,113,251,200,217,137,295,265,192,4,263,293,12,143,148,207,164,208,244,206,256,112,129,111,227,205,168,120,72,56,47,239,284,159,269,81,280,270,36,11,136,177,287,32,230,282,286,20,262,16,273,46,181,229,107,249,126,28,150,245,298,82,222,33,25,74,124,201,38,186,117,169,41,54,80,103,22,247,23,86,252,172,1,95,153,268,240,272,154,185,144,197,94,141,106,135,243,14,210,71,110,100,259,182,65,92,179,59,128,285,184,75,116,190,125,5,61,105,55,30,291,121,40,297,145,292,277,3,194,176,178,70,242,188,174,18,63,58,170,43,162,83,122,24,7,234,196,203,261,248,209,189,220,237,10,84,157,241,171,183,238,13,50,294,2,236,19,99,231,232,51,130,257,214,264,68,123,98,127,152,52,223,198,193,142,37,221,44,140,204,250,67,8,158,274,226,163,6,39,149,199,45,134,235,27,76,29,118,156,246,133,35,299,79,281,31,66,224,225,26,119,49,146,278,90,175,15,93,17,166,167,91,267,62,233,0,258,102,211,87,48,60,147,228,290,34,216,139,85,173,180,219,21,9,138,104,218,89,187,151,275,271,101,255,115,114,215,254,279,96,155,42,131,253,191,57,53,69,266,73,202,108,289,88,276,165,195,296,64,161,78,77,160,288,212,260,132,213,283],"cliqueSize":70,"correctResponse":"arrowright","correctnessOfResponse":true,"presentationNumber":13,"trial_type":"canvas-keyboard-response","trial_index":71,"time_elapsed":46670,"internal_node_id":"0.0-59.3-0.3-0.3"},{"rt":530,"response":" ","nodesOrdering":[18,60,118,267,141,193,177,68,199,233,174,130,150,275,75,80,97,178,288,175,14,148,244,86,105,13,73,24,258,110,274,287,294,115,50,29,263,126,255,106,186,31,289,298,170,172,127,197,51,260,208,296,261,82,64,182,266,111,15,192,203,282,27,98,293,217,16,154,181,136,155,4,85,139,37,49,201,67,128,47,190,1,40,272,121,207,284,21,167,57,93,30,54,43,65,195,210,95,246,196,26,7,243,169,254,74,297,42,9,137,231,184,151,71,22,114,78,134,162,189,185,131,206,76,214,10,90,183,173,84,159,79,83,250,157,180,144,45,25,269,70,117,11,212,264,120,265,213,66,77,232,187,23,204,285,145,222,252,104,99,257,88,135,271,164,143,299,249,161,28,55,12,96,176,38,283,256,253,41,228,39,122,152,8,220,140,158,62,166,241,36,236,160,165,286,205,200,94,290,87,188,292,235,108,53,239,219,58,234,5,156,215,163,295,101,209,277,19,262,168,245,112,211,171,52,100,81,281,279,89,191,63,133,149,46,291,179,123,216,223,107,17,237,142,153,20,3,230,229,202,91,61,198,132,6,34,48,119,92,240,238,221,147,33,278,129,242,259,124,226,248,102,268,35,247,2,224,225,125,109,270,116,56,227,72,146,280,103,0,69,276,138,218,113,59,251,44,273,32,194],"cliqueSize":60,"correctResponse":"arrowright","presentationNumber":14,"trial_type":"canvas-keyboard-response","trial_index":72,"time_elapsed":47317,"internal_node_id":"0.0-60.0-0.0-0.0"},{"rt":467,"response":" ","nodesOrdering":[194,278,138,171,179,283,272,173,220,230,178,297,147,177,287,68,159,107,91,117,139,167,192,165,25,42,208,52,24,221,215,295,127,265,296,153,60,55,141,274,1,22,66,113,206,0,77,59,56,136,15,110,263,241,48,211,106,74,65,235,251,62,131,190,175,120,140,84,280,4,158,290,195,293,150,257,174,46,49,87,267,168,187,35,279,121,294,203,268,75,271,197,276,114,240,18,231,95,164,102,227,247,249,99,36,176,205,292,163,160,266,143,82,135,112,217,212,12,14,243,146,260,250,129,78,246,34,30,248,86,119,67,26,45,9,223,39,170,111,70,123,225,219,29,27,236,54,6,299,7,76,155,242,17,109,291,286,207,213,116,32,273,38,142,8,209,58,210,126,79,44,144,33,128,156,284,184,104,255,108,57,298,254,169,154,124,224,43,137,5,28,20,92,218,183,166,239,152,94,186,196,37,229,85,275,16,277,81,214,234,19,89,11,222,149,200,289,122,10,162,51,80,134,244,259,226,191,202,180,105,88,41,63,72,252,97,161,258,285,228,64,83,103,47,281,90,148,264,237,61,282,93,172,40,53,288,181,245,188,216,96,253,115,145,189,261,2,13,101,100,130,232,31,21,233,256,69,133,73,125,182,118,50,269,199,71,238,262,157,3,270,204,132,193,201,198,151,23,98,185],"cliqueSize":60,"correctResponse":"arrowright","presentationNumber":14,"trial_type":"canvas-keyboard-response","trial_index":73,"time_elapsed":47904,"internal_node_id":"0.0-60.1-0.1-0.1"},{"rt":481,"response":" ","nodesOrdering":[265,81,44,153,66,171,119,62,26,218,8,45,183,176,85,50,233,105,193,286,35,89,108,92,211,187,230,229,160,189,279,146,131,55,243,59,284,213,60,179,95,225,263,208,177,161,11,104,291,174,205,30,236,138,270,275,143,80,100,20,188,271,86,71,49,262,198,79,166,206,83,39,87,76,283,261,134,10,27,23,209,167,61,63,156,42,91,241,47,148,267,234,216,129,277,170,58,247,107,115,173,202,3,169,231,204,178,70,22,274,93,152,180,258,121,285,212,272,31,185,190,157,289,25,165,24,154,116,290,210,67,48,147,113,226,280,123,182,68,137,132,117,122,248,33,223,57,252,194,172,130,240,6,52,120,299,162,102,38,145,282,114,69,266,245,256,56,135,84,144,278,136,98,250,296,200,217,196,124,7,110,159,158,254,73,249,191,19,78,4,168,46,150,295,82,72,90,29,14,36,214,53,298,1,101,149,99,281,228,40,259,109,65,195,215,142,257,207,201,141,125,94,227,237,221,203,273,264,293,292,297,34,96,0,232,74,41,140,5,111,186,32,17,139,18,97,253,12,151,184,112,16,77,155,244,164,175,197,287,260,106,255,103,269,128,238,37,199,51,235,9,118,251,224,133,54,181,2,64,28,75,288,220,222,88,242,13,163,127,192,219,239,246,276,126,43,294,21,268,15],"cliqueSize":60,"correctResponse":"arrowright","presentationNumber":14,"trial_type":"canvas-keyboard-response","trial_index":74,"time_elapsed":48507,"internal_node_id":"0.0-60.2-0.2-0.2"},{"rt":437,"response":" ","nodesOrdering":[285,75,85,213,20,83,246,204,260,79,293,130,245,297,54,240,271,64,264,44,90,18,126,30,93,172,251,101,248,235,119,183,104,160,178,197,224,109,265,205,98,133,227,14,157,43,41,88,159,203,67,291,278,147,60,247,128,76,230,127,296,262,192,107,125,214,287,274,290,113,62,92,268,123,190,13,135,94,33,280,0,150,191,158,39,145,65,148,219,78,161,26,169,102,80,139,282,2,239,199,182,295,252,256,210,228,225,164,24,46,34,168,138,31,253,53,244,48,7,146,281,3,136,19,181,89,16,165,195,77,108,73,156,142,27,137,86,134,207,21,208,238,149,220,233,288,66,84,237,141,167,110,15,9,298,226,276,275,187,279,231,100,99,103,118,1,201,12,61,112,71,4,105,59,272,57,91,261,23,122,132,50,74,140,212,116,115,72,35,153,155,222,241,221,242,5,209,49,236,22,255,216,129,154,277,32,186,152,270,193,254,258,36,211,82,42,56,292,58,151,259,87,8,185,267,286,45,40,166,257,202,177,269,180,223,283,37,189,171,117,17,188,97,175,266,263,96,218,121,250,234,284,106,179,198,63,143,215,163,124,184,11,6,38,294,249,28,25,170,243,299,111,217,55,69,81,196,289,229,47,174,120,95,10,176,68,29,51,206,162,194,200,144,70,232,114,131,173,52,273],"cliqueSize":60,"correctResponse":"arrowright","presentationNumber":14,"trial_type":"canvas-keyboard-response","trial_index":75,"time_elapsed":49067,"internal_node_id":"0.0-60.3-0.3-0.3"},{"rt":481,"response":" ","nodesOrdering":[207,121,108,14,47,224,212,226,122,161,109,163,243,10,175,256,45,250,36,53,253,13,64,151,137,185,239,30,32,214,59,178,149,194,100,142,225,12,133,104,127,235,254,260,38,201,150,267,134,66,112,96,237,89,60,56,222,203,75,179,197,281,174,86,40,51,217,118,266,74,274,4,154,132,155,17,116,279,204,283,186,252,284,231,90,61,20,29,2,119,285,148,233,270,218,205,199,258,299,8,16,209,200,99,48,70,228,183,269,111,27,147,249,272,167,136,141,110,245,190,180,95,234,135,124,9,80,216,126,282,25,191,42,297,130,144,261,271,208,145,227,257,157,143,230,1,63,232,268,68,115,43,165,298,7,206,287,210,294,291,106,241,188,189,184,103,55,213,22,193,244,5,120,44,275,169,84,187,290,73,146,293,236,182,195,94,102,117,255,91,131,170,50,114,28,276,71,223,159,67,166,18,219,57,215,262,101,77,171,15,65,264,278,138,238,123,31,248,211,265,292,52,113,54,93,41,23,34,85,168,37,263,246,83,158,181,35,152,192,286,76,277,11,24,87,259,156,69,160,221,3,164,62,81,125,296,177,172,220,229,295,289,19,105,79,273,247,39,242,0,198,6,162,98,49,128,92,82,107,280,251,153,129,173,202,176,46,196,288,240,26,97,33,140,78,72,139,21,88,58],"cliqueSize":60,"correctResponse":"arrowright","presentationNumber":14,"trial_type":"canvas-keyboard-response","trial_index":76,"time_elapsed":49681,"internal_node_id":"0.0-60.4-0.4-0.4"},{"rt":554,"response":"arrowright","nodesOrdering":[144,230,59,119,250,142,101,268,190,151,185,11,178,46,8,197,239,0,205,196,162,229,262,66,247,139,117,113,241,122,28,112,232,102,181,22,167,214,192,92,279,67,61,170,272,171,297,7,128,36,206,186,165,64,201,75,188,15,124,85,211,9,282,284,256,199,148,150,49,44,210,79,110,25,166,21,26,108,163,255,202,145,270,63,242,273,161,12,198,104,68,99,204,88,65,131,134,275,299,140,93,137,29,136,213,48,84,33,132,159,176,129,263,43,16,281,138,208,52,152,215,277,286,218,212,31,5,200,289,240,24,177,47,20,223,264,2,216,251,156,135,234,35,87,127,209,6,172,245,253,257,179,106,62,227,14,259,294,38,164,89,236,278,267,189,293,143,82,141,125,95,187,252,98,231,219,225,157,233,100,60,269,116,39,97,71,77,72,168,285,115,298,54,86,276,45,146,41,78,123,107,90,34,69,175,180,149,23,182,222,261,80,133,226,266,174,258,18,274,207,56,120,109,76,40,70,1,13,51,173,19,83,94,55,249,154,248,58,4,291,114,260,57,287,91,193,280,288,158,195,292,147,32,183,221,103,74,37,224,81,105,246,295,30,96,217,160,265,235,238,191,237,244,220,17,155,203,153,130,228,10,27,118,194,50,283,126,271,3,243,111,169,42,254,121,296,184,73,290,53],"cliqueSize":60,"correctResponse":"arrowright","correctnessOfResponse":true,"presentationNumber":14,"trial_type":"canvas-keyboard-response","trial_index":77,"time_elapsed":50358,"internal_node_id":"0.0-60.5-0.5-0.5"},{"rt":453,"response":" ","nodesOrdering":[98,162,13,227,197,26,42,243,219,90,271,93,199,96,72,58,263,110,60,51,33,240,124,176,286,21,39,135,118,256,85,73,224,194,221,47,114,272,75,126,105,67,144,131,242,205,44,264,141,233,10,214,165,232,277,107,138,22,168,130,143,149,283,50,66,113,200,163,166,56,134,297,83,241,136,174,49,177,23,24,259,234,293,260,69,193,142,31,139,147,132,45,269,160,210,88,289,231,288,216,87,70,148,74,92,218,268,101,48,25,185,146,215,203,111,270,86,169,250,249,267,157,196,290,226,180,158,282,108,182,279,0,192,228,190,254,115,198,16,173,57,137,184,99,82,206,62,145,255,37,220,84,55,154,278,64,253,12,125,15,274,295,287,38,285,152,123,65,179,252,237,8,59,68,211,217,257,94,6,116,172,209,133,40,119,188,153,43,246,212,208,103,299,262,230,91,284,251,159,19,245,213,296,29,11,46,89,155,28,18,140,150,128,280,276,106,156,97,247,79,81,7,122,235,222,102,100,27,5,204,164,36,195,35,167,223,183,266,9,109,52,248,63,14,34,151,32,121,71,265,238,129,61,170,104,3,53,4,239,202,77,112,201,189,181,95,1,178,291,127,186,171,20,281,207,187,236,294,120,191,229,273,292,54,117,17,298,261,161,41,225,175,2,258,80,78,244,30,76,275],"cliqueSize":50,"correctResponse":"arrowleft","presentationNumber":15,"trial_type":"canvas-keyboard-response","trial_index":78,"time_elapsed":50935,"internal_node_id":"0.0-61.0-0.0-0.0"},{"rt":533,"response":" ","nodesOrdering":[23,44,295,223,172,136,283,282,163,199,226,142,292,155,3,107,96,174,193,217,137,86,39,16,36,213,263,119,69,58,176,105,56,88,206,8,245,26,145,257,65,179,139,281,132,241,233,67,12,190,149,14,31,151,250,161,196,154,140,60,52,238,110,287,254,201,113,87,229,207,38,138,41,103,128,99,268,20,171,220,156,208,71,265,143,212,106,277,40,63,43,264,251,66,30,13,197,258,248,152,21,53,121,42,24,244,203,209,4,182,191,62,159,210,253,180,45,298,239,285,15,214,82,221,297,126,299,68,100,164,116,288,78,73,6,270,276,237,101,185,50,158,255,84,211,186,243,109,170,72,89,120,168,93,204,25,259,112,83,75,46,47,114,85,228,129,232,18,127,267,0,169,202,187,246,195,162,59,95,166,262,115,64,194,22,167,54,150,231,91,104,9,34,173,205,181,165,178,19,219,29,57,98,296,260,123,61,269,92,200,122,55,192,256,90,81,49,131,33,125,224,235,249,183,261,117,236,134,153,289,146,198,118,79,70,274,242,74,160,216,293,177,279,286,133,291,7,28,2,271,275,148,252,17,11,135,102,278,234,189,247,284,290,35,5,230,77,280,184,266,240,10,27,273,124,111,294,94,225,215,80,48,76,218,37,157,147,130,272,188,51,1,144,32,108,175,141,227,222,97],"cliqueSize":50,"correctResponse":"arrowleft","presentationNumber":15,"trial_type":"canvas-keyboard-response","trial_index":79,"time_elapsed":51592,"internal_node_id":"0.0-61.1-0.1-0.1"},{"rt":486,"response":" ","nodesOrdering":[109,160,91,277,281,33,18,55,289,51,288,87,244,114,228,197,131,184,25,235,38,21,231,8,246,209,266,105,175,152,272,92,165,1,49,37,41,217,62,0,82,43,161,129,78,102,16,139,115,124,242,285,177,294,269,54,107,94,79,73,81,271,14,67,101,121,202,179,132,125,290,191,123,30,230,215,29,218,36,258,225,247,44,255,239,166,146,99,26,13,142,241,157,97,172,190,276,248,153,76,173,164,149,295,148,278,138,224,68,270,264,23,186,252,84,182,85,9,211,15,136,112,122,275,227,32,42,69,52,298,174,39,117,151,130,140,194,208,46,34,214,58,17,171,189,293,282,116,147,72,297,156,31,7,162,103,196,296,187,245,98,10,221,135,110,74,35,89,250,28,70,159,261,75,127,11,268,203,134,201,257,199,195,207,120,154,4,260,118,232,104,12,96,60,100,22,193,144,126,229,283,155,119,45,192,170,183,256,57,19,185,128,86,176,63,251,150,65,56,24,253,292,287,243,61,137,93,226,286,66,180,188,267,213,20,80,53,77,181,219,273,279,47,265,40,145,106,64,284,200,158,3,113,262,206,299,240,205,212,238,95,71,274,6,233,254,111,291,280,141,216,88,178,48,259,133,237,249,163,198,204,2,168,108,83,167,234,143,210,5,263,169,27,222,220,50,223,90,236,59],"cliqueSize":50,"correctResponse":"arrowleft","presentationNumber":15,"trial_type":"canvas-keyboard-response","trial_index":80,"time_elapsed":52206,"internal_node_id":"0.0-61.2-0.2-0.2"},{"rt":482,"response":" ","nodesOrdering":[45,9,162,2,29,170,282,155,147,23,218,297,215,219,259,154,243,197,190,20,294,195,34,274,13,143,104,175,209,67,183,134,71,101,169,251,66,72,165,260,275,139,146,258,123,186,37,48,184,97,263,36,7,51,206,82,225,269,108,57,110,210,19,15,205,204,266,56,74,279,144,58,188,116,189,166,31,12,103,27,63,299,231,241,18,60,160,130,159,167,276,283,53,150,164,193,295,253,287,0,229,264,153,286,178,234,214,203,171,105,131,233,278,120,142,177,64,272,24,217,148,242,281,173,255,73,254,145,21,250,107,228,49,62,30,221,268,245,270,85,249,133,69,232,113,230,136,125,252,127,83,14,267,179,277,52,191,151,81,141,292,222,174,91,99,257,33,32,262,50,211,10,220,22,271,121,59,41,95,79,61,223,200,129,119,246,293,1,140,156,39,47,93,285,16,3,44,17,28,149,100,202,238,76,111,26,216,199,168,68,132,158,296,240,194,181,237,298,207,198,291,161,115,224,4,248,273,124,102,98,25,126,78,43,35,227,208,65,84,236,138,11,42,5,244,201,40,261,87,187,6,196,118,157,152,256,226,8,75,86,288,54,114,180,284,88,80,172,163,280,94,137,112,55,122,106,128,117,265,92,290,89,185,235,70,289,213,109,46,192,96,247,182,38,135,176,77,90,239,212],"cliqueSize":50,"correctResponse":"arrowleft","presentationNumber":15,"trial_type":"canvas-keyboard-response","trial_index":81,"time_elapsed":52815,"internal_node_id":"0.0-61.3-0.3-0.3"},{"rt":454,"response":" ","nodesOrdering":[133,79,76,172,207,10,21,53,270,209,3,184,22,70,162,105,83,255,237,238,258,296,129,266,290,104,6,217,293,34,252,218,17,195,156,265,186,31,234,107,20,58,90,206,267,11,132,4,298,142,74,231,146,32,208,214,81,148,33,275,23,143,276,66,8,250,260,72,51,88,71,271,213,16,41,141,59,1,222,127,55,134,82,147,50,175,229,191,288,196,102,299,5,161,113,198,106,131,100,130,151,153,272,205,182,67,42,194,251,177,128,45,273,199,202,2,18,7,254,112,80,30,124,245,211,145,236,94,61,125,24,178,116,65,96,165,13,103,38,62,244,29,216,183,261,98,232,122,164,190,137,226,77,294,262,48,170,97,179,200,46,243,228,225,239,242,140,120,286,187,119,109,154,204,52,108,57,247,253,64,185,279,25,114,14,277,152,285,223,39,78,69,291,171,269,259,230,282,75,280,111,115,264,136,192,174,295,297,54,63,189,292,240,220,283,28,49,95,169,110,139,135,281,89,224,268,43,246,180,256,284,203,9,163,26,235,19,219,241,121,227,215,47,44,188,86,159,160,144,35,93,155,263,12,289,233,150,201,56,176,212,92,168,91,126,257,36,274,0,123,167,68,27,248,60,84,101,117,40,87,157,278,73,118,221,173,166,197,149,158,15,287,249,85,99,210,193,37,138,181],"cliqueSize":50,"correctResponse":"arrowleft","presentationNumber":15,"trial_type":"canvas-keyboard-response","trial_index":82,"time_elapsed":53388,"internal_node_id":"0.0-61.4-0.4-0.4"},{"rt":524,"response":"arrowleft","nodesOrdering":[216,14,293,32,177,192,121,78,162,176,184,180,243,69,253,256,135,207,6,103,143,90,108,44,54,299,234,179,23,9,203,124,244,71,261,55,222,25,15,53,82,287,8,205,198,215,266,31,258,114,128,63,185,144,75,163,276,189,267,24,263,66,281,232,19,183,3,28,57,11,295,235,238,10,164,197,284,239,1,116,290,41,280,58,140,29,254,211,68,104,112,79,38,210,182,110,142,102,260,16,227,109,174,119,277,7,286,279,120,292,229,43,247,236,92,85,27,150,166,262,67,77,59,149,268,136,49,146,231,20,212,134,84,51,152,76,181,39,278,209,99,62,60,195,202,151,257,126,61,74,70,18,233,86,187,298,17,221,131,118,45,153,283,4,147,178,226,297,148,289,137,80,145,245,101,237,73,218,240,288,241,30,273,204,94,40,47,157,199,219,158,252,12,13,275,264,138,265,122,161,100,193,56,141,117,246,201,111,269,130,259,127,242,36,173,0,249,272,274,194,296,129,139,98,171,33,155,26,285,35,291,2,42,50,217,213,165,72,230,160,228,93,200,208,95,81,168,105,220,251,170,214,107,34,5,106,48,91,52,83,22,225,65,190,89,282,206,87,97,21,271,186,169,224,294,175,223,172,133,248,64,154,115,132,123,88,96,196,270,156,113,37,191,188,250,255,167,125,159,46],"cliqueSize":50,"correctResponse":"arrowleft","correctnessOfResponse":true,"presentationNumber":15,"trial_type":"canvas-keyboard-response","trial_index":83,"time_elapsed":54038,"internal_node_id":"0.0-61.5-0.5-0.5"},{"rt":494,"response":" ","nodesOrdering":[213,234,125,279,245,226,190,41,144,118,232,119,37,284,126,128,153,224,147,130,187,83,235,227,249,169,124,51,273,30,7,32,74,52,242,16,111,167,47,98,149,86,26,92,89,11,185,127,29,150,91,186,198,48,28,230,143,85,152,94,9,295,260,148,121,2,8,262,123,56,253,67,182,112,254,217,68,21,107,180,252,36,298,184,27,159,113,251,15,154,246,10,176,72,60,157,203,134,287,293,65,296,75,139,18,136,13,236,108,228,207,71,201,84,49,243,264,238,216,109,265,188,189,164,270,99,80,105,122,129,116,110,35,103,285,218,215,211,281,50,162,259,31,220,163,1,55,282,77,57,205,59,97,61,133,272,131,290,183,240,276,104,96,233,151,210,269,156,160,280,261,275,34,204,115,221,95,87,146,132,257,199,73,274,0,40,22,43,120,33,140,45,141,277,229,12,194,158,178,114,206,191,196,174,145,20,101,64,171,62,231,175,135,297,38,70,23,88,90,241,268,263,19,142,46,179,3,219,42,237,299,177,266,225,165,53,161,173,17,286,14,39,79,102,283,100,166,137,294,63,24,5,239,155,69,212,6,76,250,117,78,93,4,247,66,54,209,170,291,292,82,181,200,288,44,168,106,193,278,197,222,202,271,223,81,267,289,25,208,195,138,172,214,244,255,58,192,256,258,248],"cliqueSize":40,"correctResponse":"arrowleft","presentationNumber":16,"trial_type":"canvas-keyboard-response","trial_index":84,"time_elapsed":54659,"internal_node_id":"0.0-62.0-0.0-0.0"},{"rt":526,"response":" ","nodesOrdering":[99,259,38,294,98,71,252,96,226,207,241,154,273,59,262,192,203,214,249,198,208,266,4,29,82,148,66,73,108,234,0,136,168,270,44,286,250,202,152,280,293,125,119,92,14,149,227,129,189,53,220,156,117,11,111,13,54,109,88,134,199,64,295,206,91,251,186,8,235,62,40,140,219,105,28,257,159,287,42,269,290,170,271,34,245,104,185,217,7,218,230,274,10,222,236,151,263,282,81,85,55,80,268,283,68,135,224,178,182,114,137,210,52,184,65,61,253,153,35,163,155,213,165,237,190,223,16,277,144,1,72,63,19,297,87,94,41,130,103,107,181,90,228,146,24,3,169,276,143,32,145,240,180,57,164,69,113,116,238,247,233,2,261,160,179,26,256,175,260,86,158,5,275,132,229,205,46,167,191,97,221,279,131,121,79,51,12,248,188,201,18,284,123,122,267,124,22,58,157,75,225,100,296,126,67,110,89,166,232,139,195,118,291,15,173,265,43,298,292,56,78,197,177,45,77,196,93,150,17,278,211,60,39,176,193,161,147,37,115,76,49,246,209,243,142,187,6,127,141,95,244,171,183,133,106,289,83,239,162,194,216,242,112,288,30,272,27,281,120,264,254,20,101,50,174,215,25,47,102,23,200,255,9,258,33,299,138,21,74,285,84,128,36,48,204,70,212,31,231,172],"cliqueSize":40,"correctResponse":"arrowleft","presentationNumber":16,"trial_type":"canvas-keyboard-response","trial_index":85,"time_elapsed":55301,"internal_node_id":"0.0-62.1-0.1-0.1"},{"rt":519,"response":" ","nodesOrdering":[238,227,195,87,230,165,126,222,206,89,211,84,255,51,292,104,67,265,273,90,7,209,234,53,252,266,21,277,9,225,78,173,130,157,49,132,202,124,166,239,136,158,91,145,171,33,10,26,286,127,23,95,168,208,146,233,154,13,196,198,183,106,79,274,88,285,73,11,201,115,129,243,153,161,77,63,144,52,31,188,170,54,142,295,221,5,56,96,236,279,207,216,228,167,105,244,178,296,151,264,27,0,232,92,6,18,258,139,192,14,213,284,288,281,180,181,43,86,35,22,108,152,242,226,39,1,57,80,272,100,250,276,30,55,194,185,212,199,62,112,289,98,94,261,174,163,16,245,101,299,37,223,19,59,34,184,93,38,60,205,253,135,190,32,143,204,42,298,131,293,119,114,179,164,150,68,262,141,15,47,251,263,71,241,240,134,99,17,64,177,193,128,40,217,147,249,29,257,259,70,66,275,44,12,109,282,247,248,172,186,107,254,4,291,28,50,218,123,290,260,138,246,187,69,20,268,85,148,224,256,219,160,287,149,48,271,110,283,58,61,36,203,176,220,270,162,175,113,197,229,156,125,155,8,159,269,200,2,189,191,169,65,237,182,214,280,137,121,76,83,45,278,116,97,82,24,294,111,140,117,235,72,122,118,231,41,46,120,25,133,267,215,3,210,74,297,81,75,102,103],"cliqueSize":40,"correctResponse":"arrowleft","presentationNumber":16,"trial_type":"canvas-keyboard-response","trial_index":86,"time_elapsed":55942,"internal_node_id":"0.0-62.2-0.2-0.2"},{"rt":478,"response":" ","nodesOrdering":[155,47,102,142,100,286,9,167,62,66,46,103,111,180,263,299,7,272,228,224,239,221,241,274,61,254,131,56,189,293,242,65,215,124,246,230,231,119,193,268,24,199,220,114,13,208,117,248,225,279,262,69,30,2,104,115,182,213,162,116,6,245,282,23,68,12,80,217,141,284,22,160,234,259,206,58,260,146,70,297,128,129,271,135,170,152,41,298,14,95,174,88,101,79,185,257,126,240,261,247,201,149,8,36,82,10,269,203,121,283,181,44,71,11,19,26,54,150,112,186,84,132,109,238,179,137,194,236,196,250,55,163,99,87,138,145,223,53,266,52,235,157,33,74,91,89,140,136,38,258,108,31,148,226,139,97,197,143,278,34,211,98,78,45,285,5,93,106,3,195,48,173,76,86,200,113,290,15,251,161,42,118,27,17,21,243,63,187,144,130,81,77,287,105,227,29,191,32,73,183,207,83,133,18,64,205,16,253,252,292,222,270,159,25,294,249,277,120,237,125,75,164,255,218,107,96,168,256,40,67,176,212,28,158,244,178,171,4,210,175,1,169,37,166,50,154,85,177,198,134,280,151,0,232,267,233,43,184,92,202,49,153,190,209,291,296,51,60,39,72,172,204,273,110,288,165,216,35,276,20,281,59,265,147,289,156,295,275,94,90,192,188,122,219,229,264,214,57,127,123],"cliqueSize":40,"correctResponse":"arrowleft","presentationNumber":16,"trial_type":"canvas-keyboard-response","trial_index":87,"time_elapsed":56543,"internal_node_id":"0.0-62.3-0.3-0.3"},{"rt":569,"response":"arrowright","nodesOrdering":[231,34,267,135,37,165,167,205,2,201,104,39,286,3,220,101,237,58,156,73,128,22,190,148,96,219,126,64,272,4,253,119,87,296,143,203,172,170,25,17,280,105,184,227,153,123,191,21,292,269,282,42,122,160,161,138,155,224,67,245,51,65,74,291,233,178,284,217,28,114,52,69,260,171,13,214,197,198,204,36,97,49,27,176,159,250,278,222,275,41,75,186,242,35,16,256,168,47,8,43,90,102,257,1,116,244,152,29,181,118,63,94,285,54,183,211,146,80,93,30,88,212,192,91,210,274,259,132,235,144,150,95,268,15,78,163,11,151,59,106,92,200,82,206,48,60,254,134,294,32,189,207,236,162,7,109,0,246,216,154,255,6,136,271,83,297,110,166,55,194,238,142,175,46,185,89,99,239,111,199,50,121,273,33,124,249,77,131,230,179,164,283,251,98,71,40,174,12,85,147,137,258,45,261,218,149,209,86,221,157,20,270,129,295,100,277,145,177,14,61,288,228,133,139,140,66,241,84,187,289,182,81,262,223,180,158,293,117,248,24,115,265,19,193,287,247,141,169,240,264,188,299,208,76,5,232,18,72,127,125,38,229,57,202,120,290,243,195,252,70,281,53,130,263,279,56,276,266,196,225,62,103,213,23,79,44,215,107,9,173,26,112,226,10,113,68,31,234,108,298],"cliqueSize":40,"correctResponse":"arrowleft","correctnessOfResponse":false,"presentationNumber":16,"trial_type":"canvas-keyboard-response","trial_index":88,"time_elapsed":57240,"internal_node_id":"0.0-62.4-0.4-0.4"},{"rt":538,"response":" ","nodesOrdering":[182,297,66,46,133,226,170,285,295,65,59,266,251,259,213,212,261,7,41,70,248,186,143,277,71,211,38,273,54,122,227,217,55,86,175,281,56,145,1,250,238,45,87,49,151,117,275,4,112,152,283,254,164,44,256,104,286,147,180,81,118,22,9,140,264,75,299,270,206,93,33,169,129,221,10,235,242,258,32,30,35,69,138,141,155,51,183,103,68,288,98,236,90,159,24,189,148,72,121,15,119,34,67,135,124,279,215,42,83,195,6,154,207,268,162,84,37,243,187,260,203,223,172,8,64,94,157,78,26,62,232,262,57,77,23,134,282,39,161,171,228,179,150,193,3,237,274,205,20,106,28,220,199,197,177,123,136,234,11,257,5,202,255,53,158,89,88,208,296,74,102,40,48,130,294,204,0,225,63,210,166,190,253,126,27,108,153,280,92,196,52,21,17,167,165,18,241,293,178,230,82,216,113,287,219,184,142,168,173,146,181,109,137,50,2,105,16,188,25,116,79,267,192,99,96,247,100,61,265,91,97,291,156,47,76,201,176,231,19,95,272,198,101,245,298,58,80,114,132,214,127,246,36,233,125,131,110,289,269,111,194,144,222,115,252,185,12,60,240,29,13,73,174,14,31,284,139,224,249,160,229,276,278,128,43,85,163,218,263,290,120,200,239,149,209,244,191,107,271,292],"cliqueSize":30,"correctResponse":"arrowright","presentationNumber":17,"trial_type":"canvas-keyboard-response","trial_index":89,"time_elapsed":57905,"internal_node_id":"0.0-63.0-0.0-0.0"},{"rt":544,"response":" ","nodesOrdering":[212,183,182,43,217,211,196,234,94,55,130,37,88,246,2,245,29,194,174,33,141,46,238,294,132,224,106,102,152,109,209,193,90,205,101,291,190,72,123,143,250,85,163,164,98,295,155,93,147,124,57,203,8,27,269,261,266,281,65,146,260,272,119,242,247,186,23,78,32,229,249,299,41,114,287,171,49,149,3,12,160,213,173,18,144,233,79,67,75,70,280,120,230,165,56,206,21,263,268,286,161,176,253,22,36,128,74,19,138,66,50,226,42,53,142,6,189,231,118,131,219,159,264,92,278,110,115,276,251,80,215,237,191,248,296,240,204,139,216,244,236,58,178,26,222,223,198,63,133,177,195,104,127,170,220,140,168,52,265,254,68,14,188,256,258,112,76,38,117,285,62,82,54,105,243,40,262,116,284,267,166,184,97,73,214,28,277,30,35,282,126,273,201,255,169,227,113,297,283,60,197,100,15,129,5,259,48,16,0,239,81,172,11,136,86,148,290,167,200,103,241,270,134,121,153,210,91,185,292,17,45,181,207,96,135,64,20,108,111,225,288,1,271,154,125,31,84,122,95,87,69,150,228,145,44,7,24,289,71,89,257,4,298,83,275,13,9,235,192,279,274,179,199,25,61,151,158,187,232,34,39,208,202,252,293,157,218,51,180,137,10,107,47,99,77,175,59,221,162,156],"cliqueSize":30,"correctResponse":"arrowright","presentationNumber":17,"trial_type":"canvas-keyboard-response","trial_index":90,"time_elapsed":58573,"internal_node_id":"0.0-63.1-0.1-0.1"},{"rt":470,"response":" ","nodesOrdering":[299,285,50,214,247,288,178,35,188,183,12,276,116,140,147,175,270,156,176,207,47,25,258,238,132,257,149,273,272,79,281,244,180,185,174,196,143,154,164,93,53,3,114,129,261,117,2,290,165,59,121,41,131,14,200,228,128,108,82,146,191,138,182,227,28,34,84,31,95,245,166,44,234,184,133,205,40,137,193,268,76,90,204,99,155,222,96,256,39,101,237,157,210,21,30,241,54,230,201,36,229,243,194,189,264,72,58,106,27,10,65,125,202,17,239,26,190,224,60,177,279,163,289,103,282,70,135,208,107,67,115,127,43,150,22,123,265,162,186,232,55,195,102,5,98,15,159,18,100,56,83,32,203,291,296,94,250,6,197,199,249,134,216,287,295,217,1,49,172,109,260,219,254,130,80,78,74,23,269,283,231,85,225,158,86,213,4,112,38,266,168,298,45,286,198,105,9,259,142,136,235,13,69,62,141,160,11,118,153,145,293,57,277,33,215,294,0,297,292,8,122,19,212,91,110,88,148,187,52,29,211,64,119,271,77,120,221,274,251,20,144,226,242,89,275,181,104,51,267,220,48,255,284,192,16,240,24,73,113,152,124,209,218,151,253,139,280,236,7,246,233,37,87,223,167,111,263,92,179,278,206,126,173,68,63,42,171,161,46,61,169,71,170,252,81,262,66,97,248,75],"cliqueSize":30,"correctResponse":"arrowright","presentationNumber":17,"trial_type":"canvas-keyboard-response","trial_index":91,"time_elapsed":59170,"internal_node_id":"0.0-63.2-0.2-0.2"},{"rt":432,"response":" ","nodesOrdering":[91,13,44,193,32,74,233,129,79,30,98,254,88,85,218,108,105,76,270,273,182,222,97,41,190,103,231,287,239,262,18,200,280,173,77,263,209,69,229,265,144,167,169,186,134,80,0,152,11,166,225,28,125,294,128,227,12,269,208,55,140,31,93,153,271,64,183,266,298,35,54,100,111,38,179,215,1,175,282,115,116,199,59,10,39,198,157,127,118,181,256,3,122,268,70,251,120,201,90,109,151,63,89,155,160,238,138,117,246,23,4,75,243,188,277,119,223,260,275,6,146,141,48,43,67,57,161,168,192,234,21,220,154,296,73,143,174,163,136,123,147,121,7,276,113,65,226,206,33,26,94,210,292,36,213,148,150,245,255,2,149,217,135,133,87,283,257,164,247,295,212,68,95,83,285,228,203,230,237,293,56,235,112,216,241,274,110,185,214,139,197,99,289,102,71,132,177,34,92,58,250,131,49,53,104,244,291,52,286,45,14,37,176,284,205,82,191,137,279,281,17,288,9,278,240,219,156,114,107,19,202,106,195,272,27,211,224,24,84,46,78,297,187,130,248,158,16,207,124,236,196,47,42,40,72,184,252,51,61,162,5,29,66,258,170,178,60,189,249,180,86,259,232,22,267,81,8,299,171,290,165,204,142,145,172,96,221,242,50,101,264,25,253,194,20,126,261,15,62,159],"cliqueSize":30,"correctResponse":"arrowright","presentationNumber":17,"trial_type":"canvas-keyboard-response","trial_index":92,"time_elapsed":59725,"internal_node_id":"0.0-63.3-0.3-0.3"},{"rt":563,"response":" ","nodesOrdering":[12,67,263,245,279,149,55,121,77,299,13,28,79,276,22,115,262,75,198,23,148,9,272,227,94,66,169,56,84,183,201,235,192,76,232,240,170,187,176,16,219,297,273,120,146,286,226,224,129,283,157,108,138,58,53,51,180,102,106,207,167,277,143,214,164,271,42,182,17,243,24,52,33,178,254,131,144,27,100,45,37,284,139,174,103,40,34,204,290,135,199,249,153,86,110,127,123,35,246,126,150,69,10,70,260,71,117,223,242,54,165,218,87,4,133,264,237,19,83,29,281,168,124,85,152,14,101,265,130,140,0,251,202,92,105,179,116,291,95,295,21,175,203,118,80,46,96,274,190,97,234,39,91,57,181,49,61,122,155,99,31,259,171,1,200,141,30,208,248,44,60,188,6,78,43,81,160,212,48,112,88,293,238,194,280,38,287,257,206,215,205,211,239,268,145,184,74,113,154,247,197,50,158,186,256,288,216,221,89,166,137,8,125,282,173,93,252,298,267,162,193,90,225,59,26,161,114,270,2,196,111,253,231,36,15,269,236,82,132,220,151,229,41,136,191,142,250,278,233,258,163,195,261,5,73,230,244,25,11,177,68,62,107,18,209,119,266,289,159,72,285,65,222,156,64,296,185,241,228,20,63,98,3,32,294,109,210,213,217,47,147,104,128,7,172,255,275,134,292,189],"cliqueSize":30,"correctResponse":"arrowright","presentationNumber":17,"trial_type":"canvas-keyboard-response","trial_index":93,"time_elapsed":60422,"internal_node_id":"0.0-63.4-0.4-0.4"},{"rt":766,"response":"arrowleft","nodesOrdering":[44,37,5,204,136,35,219,190,265,212,9,115,174,201,193,260,82,133,36,104,142,255,266,42,278,26,95,218,249,180,281,169,151,289,214,230,10,88,30,109,116,43,52,98,103,134,213,3,243,282,58,51,188,216,101,89,206,22,277,268,59,274,62,118,63,157,79,267,144,298,291,128,258,85,227,232,53,271,247,200,100,76,33,97,223,166,272,251,163,57,262,11,113,189,252,171,152,39,66,198,293,91,195,286,164,285,172,296,165,231,67,209,31,156,299,185,20,233,225,168,49,275,81,143,284,177,196,276,181,2,173,125,297,83,110,167,161,283,235,210,84,250,294,78,139,191,25,184,13,179,248,292,4,228,48,93,257,69,68,117,202,34,147,192,23,102,121,32,246,16,238,237,38,107,242,211,75,86,73,153,254,135,269,70,279,263,94,241,124,176,60,29,27,127,14,240,131,182,187,199,154,120,253,123,140,99,186,28,158,92,203,15,1,207,290,45,6,194,87,261,50,229,40,119,256,112,138,122,245,220,150,71,244,18,159,24,270,55,287,65,221,178,160,12,146,64,130,197,129,215,46,61,90,80,47,108,19,224,77,96,111,273,72,280,21,148,205,162,264,54,114,155,149,132,56,295,175,234,41,239,288,141,106,17,183,222,7,217,226,126,137,8,208,145,0,236,170,259,105,74],"cliqueSize":30,"correctResponse":"arrowright","correctnessOfResponse":false,"presentationNumber":17,"trial_type":"canvas-keyboard-response","trial_index":94,"time_elapsed":61338,"internal_node_id":"0.0-63.5-0.5-0.5"},{"rt":612,"response":" ","nodesOrdering":[211,3,115,281,7,129,127,65,67,262,44,260,104,166,69,31,169,75,41,296,103,261,217,139,238,290,294,174,192,236,228,116,206,82,121,201,197,193,165,56,222,124,146,10,267,45,297,123,27,279,88,34,130,168,180,243,177,278,295,145,4,102,270,161,98,128,89,268,289,229,110,263,151,250,87,51,209,298,170,107,80,26,77,83,70,224,190,125,288,210,178,11,234,184,133,202,59,198,148,48,84,213,242,131,254,96,276,246,299,57,244,162,126,132,12,163,256,285,182,78,9,122,176,24,233,101,194,38,138,157,186,6,73,64,226,106,237,195,257,160,293,221,49,183,54,272,255,113,112,85,265,154,118,219,140,191,208,95,189,252,196,100,86,280,68,50,81,60,15,63,43,218,90,264,235,284,99,120,143,32,199,147,40,149,79,152,136,8,18,22,251,153,287,30,200,13,175,97,53,220,253,47,36,188,274,203,245,0,259,273,37,231,212,249,247,114,155,277,119,291,258,17,150,232,92,227,2,240,172,74,158,179,216,292,76,269,20,52,35,204,271,230,164,58,215,173,248,167,19,62,25,275,108,23,159,55,5,286,135,14,214,109,239,105,111,117,71,91,207,72,1,144,33,66,181,21,16,156,94,205,141,93,185,61,142,283,241,29,39,137,223,46,266,225,282,28,42,187,134,171],"cliqueSize":20,"correctResponse":"arrowleft","presentationNumber":18,"trial_type":"canvas-keyboard-response","trial_index":95,"time_elapsed":62077,"internal_node_id":"0.0-64.0-0.0-0.0"},{"rt":565,"response":" ","nodesOrdering":[218,103,246,202,210,26,98,94,295,294,68,148,200,107,83,275,162,15,35,144,55,170,97,22,181,276,257,179,108,60,279,158,23,204,156,127,80,42,161,67,27,1,297,20,187,74,193,284,272,178,288,165,37,299,247,143,136,92,124,228,89,188,7,151,118,252,104,69,291,209,271,52,164,245,198,111,282,190,155,248,177,133,173,126,81,223,88,169,140,167,123,77,90,13,220,270,175,8,99,28,31,180,214,117,239,110,0,82,119,58,267,191,261,147,213,32,24,63,106,14,241,57,243,129,249,76,296,174,192,71,112,135,259,34,48,277,72,185,56,224,6,235,238,285,121,268,171,75,53,244,120,225,281,95,5,38,253,61,93,11,217,114,231,145,21,197,33,286,10,287,258,159,232,184,109,263,44,182,131,66,18,274,87,96,206,130,128,195,160,240,51,102,9,134,229,266,137,254,85,19,153,46,91,146,49,40,163,194,260,4,100,154,242,116,189,183,62,221,212,255,84,70,293,226,29,30,256,138,45,54,233,203,73,292,201,222,211,17,59,168,79,25,196,43,207,101,199,3,64,205,152,39,176,278,157,269,115,230,237,283,41,113,234,236,47,227,142,149,264,215,141,289,12,139,250,132,105,219,208,280,78,166,262,2,36,86,265,125,16,122,290,298,251,150,216,273,186,65,50,172],"cliqueSize":20,"correctResponse":"arrowleft","presentationNumber":18,"trial_type":"canvas-keyboard-response","trial_index":96,"time_elapsed":62774,"internal_node_id":"0.0-64.1-0.1-0.1"},{"rt":507,"response":" ","nodesOrdering":[203,60,237,42,233,207,3,24,204,299,294,22,270,73,252,167,213,39,14,197,28,155,136,275,110,7,71,210,183,221,20,280,98,61,26,96,105,164,189,168,134,239,129,296,89,111,125,78,130,120,103,212,76,90,246,214,135,185,259,173,219,131,1,160,8,34,278,186,23,289,72,30,70,194,137,161,25,146,99,139,196,262,285,6,181,86,0,53,124,75,222,166,158,41,169,205,225,40,163,48,179,257,143,83,102,29,12,59,68,170,46,138,218,174,148,54,10,234,49,126,33,253,282,209,140,190,271,242,199,141,187,19,230,47,295,201,286,16,176,104,27,114,63,193,32,191,62,184,245,15,9,265,5,2,235,66,206,182,80,91,236,266,128,250,94,287,87,116,248,107,290,123,263,244,93,127,229,82,101,192,118,283,122,115,279,249,224,232,121,274,281,149,247,112,55,152,145,217,267,43,11,260,240,79,142,58,162,109,74,277,77,84,44,38,261,211,65,157,254,18,97,92,284,95,51,180,268,276,88,202,273,69,226,150,147,215,21,56,57,100,36,113,291,108,45,200,154,251,258,165,220,17,198,264,241,35,292,64,269,117,195,85,227,177,144,208,133,293,132,52,106,216,243,81,171,151,298,50,231,288,119,37,13,31,255,67,156,175,223,153,238,272,178,256,228,297,4,188,159,172],"cliqueSize":20,"correctResponse":"arrowleft","presentationNumber":18,"trial_type":"canvas-keyboard-response","trial_index":97,"time_elapsed":63415,"internal_node_id":"0.0-64.2-0.2-0.2"},{"rt":593,"response":" ","nodesOrdering":[20,6,271,144,30,219,49,162,135,46,134,154,262,24,273,132,140,67,90,104,233,209,68,63,121,237,115,221,267,199,259,207,170,218,268,41,193,172,126,156,9,28,212,105,53,253,91,35,293,264,0,229,138,88,227,158,36,270,59,277,71,61,225,191,120,299,290,139,133,224,8,236,180,111,239,261,232,137,31,93,248,45,96,84,3,234,107,18,183,217,280,12,241,297,74,22,175,157,173,52,149,182,94,16,66,97,147,141,216,122,178,210,185,77,242,55,161,142,164,72,114,179,263,165,238,257,85,98,92,247,145,75,57,287,286,296,33,155,169,43,220,17,65,223,34,116,4,119,205,99,166,197,168,80,136,215,64,203,208,269,123,171,281,151,211,39,256,152,143,23,190,265,44,231,148,275,245,167,62,163,258,285,204,118,40,235,250,79,252,243,254,69,266,89,113,177,251,159,295,10,294,187,117,112,110,184,29,73,38,25,196,188,131,192,21,150,81,174,37,278,189,206,11,51,26,129,124,255,244,181,95,153,284,87,176,289,222,276,19,48,76,7,272,1,298,50,260,2,83,106,70,160,109,60,82,240,194,230,228,202,128,226,108,101,125,86,32,58,282,42,291,146,198,214,27,14,100,288,78,5,213,130,103,102,127,47,15,201,13,246,195,283,279,249,292,274,56,54,200,186],"cliqueSize":20,"correctResponse":"arrowleft","presentationNumber":18,"trial_type":"canvas-keyboard-response","trial_index":98,"time_elapsed":64151,"internal_node_id":"0.0-64.3-0.3-0.3"},{"rt":563,"response":"arrowleft","nodesOrdering":[237,198,296,206,222,133,135,119,111,173,38,139,64,262,22,149,196,44,249,13,48,54,245,141,224,91,171,86,256,113,167,203,3,247,267,30,117,41,95,157,99,270,174,217,49,36,67,153,8,187,219,128,46,278,2,286,83,176,4,191,145,143,34,227,288,118,6,272,241,47,109,162,214,242,200,17,15,165,40,98,96,148,137,62,28,0,190,223,37,279,231,59,134,77,273,92,33,234,281,146,178,151,298,268,81,132,129,68,292,84,106,215,271,259,121,7,125,295,73,166,79,87,243,131,169,71,102,299,294,175,32,80,235,250,201,193,208,181,197,155,212,114,276,12,228,164,35,293,10,192,226,277,297,11,210,202,216,254,88,209,199,185,1,120,179,5,232,122,170,233,60,56,29,220,257,74,207,52,261,69,225,244,290,72,248,195,189,55,240,76,45,126,260,238,85,177,89,16,75,101,90,251,182,161,63,289,218,236,159,172,283,266,211,258,282,147,108,127,144,140,31,156,275,50,43,53,107,150,291,186,115,14,19,168,9,284,265,70,97,253,124,100,25,264,94,27,160,274,263,103,105,65,269,142,285,21,183,138,58,51,255,154,213,18,104,20,180,82,116,93,252,287,57,239,136,66,39,112,188,184,221,158,194,246,78,130,280,152,110,61,163,24,204,230,205,23,229,42,26,123],"cliqueSize":20,"correctResponse":"arrowleft","correctnessOfResponse":true,"presentationNumber":18,"trial_type":"canvas-keyboard-response","trial_index":99,"time_elapsed":64859,"internal_node_id":"0.0-64.4-0.4-0.4"},{"rt":549,"response":" ","nodesOrdering":[107,13,8,135,61,99,206,167,252,262,247,263,115,82,144,177,239,269,95,178,211,261,70,32,100,187,136,68,163,295,3,290,169,281,6,63,129,284,146,9,180,164,250,219,85,15,139,278,149,170,207,35,254,298,297,106,213,97,112,138,234,242,189,195,264,230,76,197,88,275,118,62,200,64,191,51,65,11,175,251,165,292,267,229,238,17,231,116,245,248,43,36,38,122,266,198,152,108,26,50,232,105,190,274,126,202,84,101,109,55,223,299,276,158,40,86,288,193,94,49,145,240,5,174,236,160,23,208,171,271,33,221,259,87,249,280,74,10,78,273,296,45,226,83,121,286,1,270,255,42,253,209,162,151,21,29,57,289,24,7,66,181,277,39,103,77,216,16,201,48,111,204,30,246,31,161,157,153,224,89,154,293,124,186,98,67,220,235,44,58,205,194,294,225,123,27,222,168,131,142,173,176,104,159,256,75,53,199,110,143,241,283,141,179,18,140,182,4,228,41,90,2,69,96,203,172,72,217,12,52,54,25,92,214,117,128,119,244,218,210,60,71,212,81,20,113,291,272,285,184,279,148,125,150,257,268,79,215,19,47,282,14,156,102,258,34,127,137,80,260,134,243,166,130,227,59,196,22,185,120,0,155,147,73,132,183,28,133,287,188,93,192,233,37,56,265,114,46,91,237],"cliqueSize":10,"correctResponse":"arrowleft","presentationNumber":19,"trial_type":"canvas-keyboard-response","trial_index":100,"time_elapsed":65559,"internal_node_id":"0.0-65.0-0.0-0.0"},{"rt":546,"response":" ","nodesOrdering":[93,184,95,174,119,126,32,286,121,284,177,204,290,277,185,186,18,110,201,89,13,291,108,189,105,166,49,210,72,127,218,143,70,112,19,17,229,163,195,10,251,109,190,71,8,223,113,82,287,194,76,167,253,176,21,265,262,241,38,246,24,35,140,118,37,153,81,280,146,87,217,227,51,46,106,6,101,103,44,260,203,63,199,283,84,169,206,181,273,120,52,90,178,7,211,27,14,0,187,98,130,294,232,99,55,79,131,144,33,41,285,28,157,5,139,15,73,22,205,202,276,74,165,64,247,175,293,94,161,80,182,272,231,92,171,159,145,179,209,152,9,271,197,134,245,282,263,20,236,164,228,154,270,267,198,57,256,258,288,180,249,1,96,43,135,117,243,214,220,299,226,65,257,255,128,136,48,278,297,56,111,123,208,193,207,132,23,2,295,68,234,91,200,240,158,104,58,160,230,150,77,147,254,42,25,238,30,88,4,275,237,264,115,183,221,239,85,137,269,124,125,196,250,279,67,62,45,116,151,69,156,133,188,268,142,54,242,114,219,168,292,122,102,29,141,75,261,148,289,259,59,26,155,40,66,39,191,16,100,298,11,97,162,31,212,61,296,215,274,235,244,248,107,78,224,222,53,172,12,47,60,281,233,192,170,3,252,36,225,138,266,34,173,213,86,50,83,149,216,129],"cliqueSize":10,"correctResponse":"arrowleft","presentationNumber":19,"trial_type":"canvas-keyboard-response","trial_index":101,"time_elapsed":66263,"internal_node_id":"0.0-65.1-0.1-0.1"},{"rt":804,"response":" ","nodesOrdering":[190,176,151,91,288,124,129,225,76,259,115,229,16,68,18,89,160,241,187,155,192,40,132,50,165,164,88,223,290,175,276,233,191,96,65,1,199,201,236,29,7,97,74,266,92,52,218,185,295,54,184,81,32,221,22,43,101,127,262,15,213,95,36,84,248,197,62,12,111,53,33,230,286,242,215,194,14,154,210,83,140,297,163,121,41,168,231,60,6,177,268,235,247,100,220,2,234,237,293,180,217,219,117,209,205,200,171,71,112,264,278,73,8,142,99,204,270,222,238,156,172,48,232,260,202,245,110,280,255,27,287,289,281,216,279,39,145,272,250,59,195,122,285,19,11,70,141,294,75,207,167,239,203,113,31,116,80,244,158,134,125,21,3,188,51,5,183,108,157,102,173,56,10,179,131,128,93,78,69,275,46,64,254,38,90,251,137,161,37,269,23,49,118,258,139,240,107,67,208,87,123,44,136,274,149,9,193,263,47,104,283,292,170,253,296,94,20,284,148,166,261,162,224,126,271,103,196,169,146,212,256,17,249,198,265,273,24,206,143,30,178,186,106,181,58,182,246,277,85,228,298,66,291,152,86,34,57,138,267,28,120,144,214,82,77,45,63,105,4,55,257,114,227,109,135,133,61,147,98,13,150,211,26,79,299,35,0,72,42,243,282,189,226,153,252,25,174,130,159,119],"cliqueSize":10,"correctResponse":"arrowleft","presentationNumber":19,"trial_type":"canvas-keyboard-response","trial_index":102,"time_elapsed":67217,"internal_node_id":"0.0-65.2-0.2-0.2"},{"rt":1209,"response":"arrowleft","nodesOrdering":[65,147,293,132,27,195,223,152,37,62,266,16,218,2,259,43,38,275,257,157,200,153,115,169,41,182,22,150,102,135,140,89,103,248,19,226,164,151,45,139,178,264,75,84,64,0,73,133,15,250,141,14,107,54,290,236,26,167,284,137,170,113,30,44,207,187,82,227,104,138,272,197,254,288,34,256,18,220,280,255,235,217,123,4,199,158,81,224,3,232,67,76,72,6,166,297,193,128,78,252,100,93,36,175,237,215,90,119,13,80,209,249,59,184,270,188,23,268,110,243,278,92,8,112,172,146,294,79,97,265,198,154,285,143,213,295,201,101,176,274,269,69,86,55,279,29,205,219,271,211,56,168,124,165,98,7,60,210,99,179,46,32,276,40,181,42,190,299,105,212,180,49,116,1,20,120,174,48,33,142,189,242,10,35,287,222,144,68,57,96,85,156,106,234,221,17,136,238,9,267,171,134,277,186,159,145,71,283,130,52,253,202,263,87,39,74,53,296,273,117,173,298,231,25,121,233,204,196,244,216,281,291,183,191,161,240,118,24,94,282,228,160,258,125,31,111,246,129,185,77,292,261,126,50,127,149,241,109,88,108,247,122,95,163,203,208,245,214,230,289,260,148,11,12,63,206,114,66,21,262,177,5,225,162,61,58,28,51,155,192,239,83,251,194,229,70,47,286,91,131],"cliqueSize":10,"correctResponse":"arrowleft","correctnessOfResponse":true,"presentationNumber":19,"trial_type":"canvas-keyboard-response","trial_index":103,"time_elapsed":68563,"internal_node_id":"0.0-65.3-0.3-0.3"}]