[{"view_history":[{"page_index":0,"viewing_time":1271},{"page_index":1,"viewing_time":141}],"rt":1411,"trial_type":"instructions","trial_index":0,"time_elapsed":1414,"internal_node_id":"0.0-0.0"},{"success":true,"timeout":false,"failed_images":[],"failed_audio":[],"failed_video":[],"trial_type":"preload","trial_index":1,"time_elapsed":1472,"internal_node_id":"0.0-1.0"},{"view_history":[{"page_index":0,"viewing_time":58},{"page_index":1,"viewing_time":162},{"page_index":2,"viewing_time":138},{"page_index":3,"viewing_time":135},{"page_index":4,"viewing_time":132},{"page_index":5,"viewing_time":240},{"page_index":6,"viewing_time":436},{"page_index":7,"viewing_time":139},{"page_index":8,"viewing_time":487},{"page_index":9,"viewing_time":244},{"page_index":10,"viewing_time":172},{"page_index":11,"viewing_time":110},{"page_index":12,"viewing_time":157},{"page_index":13,"viewing_time":134},{"page_index":14,"viewing_time":160},{"page_index":15,"viewing_time":132},{"page_index":16,"viewing_time":150},{"page_index":17,"viewing_time":95},{"page_index":18,"viewing_time":167},{"page_index":19,"viewing_time":94},{"page_index":20,"viewing_time":160},{"page_index":21,"viewing_time":261},{"page_index":22,"viewing_time":272},{"page_index":23,"viewing_time":101},{"page_index":24,"viewing_time":183},{"page_index":25,"viewing_time":117},{"page_index":26,"viewing_time":173},{"page_index":27,"viewing_time":112},{"page_index":28,"viewing_time":185},{"page_index":29,"viewing_time":115},{"page_index":30,"viewing_time":175},{"page_index":31,"viewing_time":100},{"page_index":32,"viewing_time":191},{"page_index":33,"viewing_time":91},{"page_index":34,"viewing_time":189},{"page_index":35,"viewing_time":297},{"page_index":36,"viewing_time":124},{"page_index":37,"viewing_time":207},{"page_index":38,"viewing_time":155},{"page_index":39,"viewing_time":166},{"page_index":40,"viewing_time":176},{"page_index":41,"viewing_time":175},{"page_index":42,"viewing_time":155},{"page_index":43,"viewing_time":173},{"page_index":44,"viewing_time":151},{"page_index":45,"viewing_time":184},{"page_index":46,"viewing_time":130},{"page_index":47,"viewing_time":185},{"page_index":48,"viewing_time":247},{"page_index":49,"viewing_time":319},{"page_index":50,"viewing_time":181},{"page_index":51,"viewing_time":192},{"page_index":52,"viewing_time":168},{"page_index":53,"viewing_time":185},{"page_index":54,"viewing_time":156},{"page_index":55,"viewing_time":183},{"page_index":56,"viewing_time":112},{"page_index":57,"viewing_time":232},{"page_index":58,"viewing_time":195},{"page_index":59,"viewing_time":175},{"page_index":60,"viewing_time":135},{"page_index":61,"viewing_time":190},{"page_index":62,"viewing_time":109},{"page_index":63,"viewing_time":399},{"page_index":64,"viewing_time":273},{"page_index":65,"viewing_time":184},{"page_index":66,"viewing_time":158},{"page_index":67,"viewing_time":153},{"page_index":68,"viewing_time":94},{"page_index":69,"viewing_time":198},{"page_index":70,"viewing_time":137}],"rt":12618,"trial_type":"instructions","trial_index":2,"time_elapsed":14091,"internal_node_id":"0.0-2.0"},{"view_history":[{"page_index":0,"viewing_time":1375}],"rt":1375,"trial_type":"instructions","trial_index":3,"time_elapsed":15466,"internal_node_id":"0.0-3.0"},{"success":true,"timeout":false,"failed_images":[],"failed_audio":[],"failed_video":[],"trial_type":"preload","trial_index":4,"time_elapsed":15491,"internal_node_id":"0.0-4.0"},{"rt":123,"stimulus":"tutorial/task_familiarization_images/part 1/1_N300_K170_cliqueRight_question1.PNG","response":" ","trial_type":"image-keyboard-response","trial_index":5,"time_elapsed":15617,"internal_node_id":"0.0-5.0"},{"rt":154,"stimulus":"tutorial/task_familiarization_images/part 1/2_N300_K170_cliqueRight_question2.PNG","response":" ","trial_type":"image-keyboard-response","trial_index":6,"time_elapsed":15771,"internal_node_id":"0.0-6.0"},{"rt":834,"stimulus":"tutorial/task_familiarization_images/part 1/3_N300_K170_cliqueRight_question3.PNG","response":"arrowleft","trial_type":"image-keyboard-response","trial_index":7,"time_elapsed":16606,"internal_node_id":"0.0-7.0"},{"rt":154,"stimulus":"tutorial/task_familiarization_images/part 1/4_N300_K170_cliqueRight_solution.PNG","response":" ","trial_type":"image-keyboard-response","trial_index":8,"time_elapsed":16762,"internal_node_id":"0.0-8.0"},{"rt":148,"stimulus":"tutorial/task_familiarization_images/part 1/5_N300_K120_cliqueRight_question1.PNG","response":" ","trial_type":"image-keyboard-response","trial_index":9,"time_elapsed":16912,"internal_node_id":"0.0-9.0"},{"rt":183,"stimulus":"tutorial/task_familiarization_images/part 1/6_N300_K120_cliqueRight_question2.PNG","response":" ","trial_type":"image-keyboard-response","trial_index":10,"time_elapsed":17096,"internal_node_id":"0.0-10.0"},{"rt":965,"stimulus":"tutorial/task_familiarization_images/part 1/7_N300_K120_cliqueRight_question3.PNG","response":"arrowleft","trial_type":"image-keyboard-response","trial_index":11,"time_elapsed":18062,"internal_node_id":"0.0-11.0"},{"rt":98,"stimulus":"tutorial/task_familiarization_images/part 1/8_N300_K120_cliqueRight_solution.PNG","response":" ","trial_type":"image-keyboard-response","trial_index":12,"time_elapsed":18162,"internal_node_id":"0.0-12.0"},{"rt":421,"stimulus":"tutorial/task_familiarization_images/part 1/9_N300_K90_cliqueLeft_question1.PNG","response":" ","trial_type":"image-keyboard-response","trial_index":13,"time_elapsed":18584,"internal_node_id":"0.0-13.0"},{"rt":192,"stimulus":"tutorial/task_familiarization_images/part 1/10_N300_K90_cliqueLeft_question2.PNG","response":" ","trial_type":"image-keyboard-response","trial_index":14,"time_elapsed":18778,"internal_node_id":"0.0-14.0"},{"rt":697,"stimulus":"tutorial/task_familiarization_images/part 1/11_N300_K90_cliqueLeft_question3.PNG","response":"arrowright","trial_type":"image-keyboard-response","trial_index":15,"time_elapsed":19476,"internal_node_id":"0.0-15.0"},{"rt":813,"stimulus":"tutorial/task_familiarization_images/part 1/12_N300_K90_cliqueLeft_solution.PNG","response":" ","trial_type":"image-keyboard-response","trial_index":16,"time_elapsed":20290,"internal_node_id":"0.0-16.0"},{"rt":129,"stimulus":"tutorial/task_familiarization_images/part 1/13_N300_K140_cliqueLeft_question1.PNG","response":" ","trial_type":"image-keyboard-response","trial_index":17,"time_elapsed":20420,"internal_node_id":"0.0-17.0"},{"rt":267,"stimulus":"tutorial/task_familiarization_images/part 1/14_N300_K140_cliqueLeft_question2.PNG","response":" ","trial_type":"image-keyboard-response","trial_index":18,"time_elapsed":20688,"internal_node_id":"0.0-18.0"},{"rt":946,"stimulus":"tutorial/task_familiarization_images/part 1/15_N300_K140_cliqueLeft_question3.PNG","response":"arrowright","trial_type":"image-keyboard-response","trial_index":19,"time_elapsed":21636,"internal_node_id":"0.0-19.0"},{"rt":646,"stimulus":"tutorial/task_familiarization_images/part 1/16_N300_K140_cliqueLeft_solution.PNG","response":" ","trial_type":"image-keyboard-response","trial_index":20,"time_elapsed":22283,"internal_node_id":"0.0-20.0"},{"rt":208,"stimulus":"tutorial/task_familiarization_images/part 1/17_N300_K70_cliqueRight_question1.PNG","response":" ","trial_type":"image-keyboard-response","trial_index":21,"time_elapsed":22492,"internal_node_id":"0.0-21.0"},{"rt":194,"stimulus":"tutorial/task_familiarization_images/part 1/18_N300_K70_cliqueRight_question2.PNG","response":" ","trial_type":"image-keyboard-response","trial_index":22,"time_elapsed":22687,"internal_node_id":"0.0-22.0"},{"rt":2582,"stimulus":"tutorial/task_familiarization_images/part 1/19_N300_K70_cliqueRight_question3.PNG","response":"arrowleft","trial_type":"image-keyboard-response","trial_index":23,"time_elapsed":25271,"internal_node_id":"0.0-23.0"},{"rt":838,"stimulus":"tutorial/task_familiarization_images/part 1/20_N300_K70_cliqueRight_solution.PNG","response":" ","trial_type":"image-keyboard-response","trial_index":24,"time_elapsed":26110,"internal_node_id":"0.0-24.0"},{"rt":161,"stimulus":"tutorial/task_familiarization_images/part 1/21_N300_K100_cliqueLeft_question1.PNG","response":" ","trial_type":"image-keyboard-response","trial_index":25,"time_elapsed":26273,"internal_node_id":"0.0-25.0"},{"rt":187,"stimulus":"tutorial/task_familiarization_images/part 1/22_N300_K100_cliqueLeft_question2.PNG","response":" ","trial_type":"image-keyboard-response","trial_index":26,"time_elapsed":26461,"internal_node_id":"0.0-26.0"},{"rt":743,"stimulus":"tutorial/task_familiarization_images/part 1/23_N300_K100_cliqueLeft_question3.PNG","response":"arrowright","trial_type":"image-keyboard-response","trial_index":27,"time_elapsed":27206,"internal_node_id":"0.0-27.0"},{"rt":494,"stimulus":"tutorial/task_familiarization_images/part 1/24_N300_K100_cliqueLeft_solution.PNG","response":" ","trial_type":"image-keyboard-response","trial_index":28,"time_elapsed":27701,"internal_node_id":"0.0-28.0"},{"success":true,"timeout":false,"failed_images":[],"failed_audio":[],"failed_video":[],"trial_type":"preload","trial_index":29,"time_elapsed":27726,"internal_node_id":"0.0-29.0"},{"rt":207,"stimulus":"tutorial/task_familiarization_images/part 2/1_300_120_cliqueLeft_withFeedback_1.PNG","response":" ","trial_type":"image-keyboard-response","trial_index":30,"time_elapsed":27934,"internal_node_id":"0.0-30.0"},{"rt":312,"stimulus":"tutorial/task_familiarization_images/part 2/2_300_120_cliqueLeft_withFeedback_2.PNG","response":" ","trial_type":"image-keyboard-response","trial_index":31,"time_elapsed":28247,"internal_node_id":"0.0-31.0"},{"rt":670,"stimulus":"tutorial/task_familiarization_images/part 2/3_300_120_cliqueLeft_withFeedback_3.PNG","response":"arrowleft","trial_type":"image-keyboard-response","trial_index":32,"time_elapsed":28917,"internal_node_id":"0.0-32.0"},{"rt":369,"stimulus":"tutorial/task_familiarization_images/part 2/4_300_120_cliqueLeft_withFeedback_solution.PNG","response":" ","trial_type":"image-keyboard-response","trial_index":33,"time_elapsed":29287,"internal_node_id":"0.0-33.0"},{"rt":457,"stimulus":"tutorial/task_familiarization_images/part 2/5_300_120_cliqueLeft_withFeedback_correctAnswer.PNG","response":" ","trial_type":"image-keyboard-response","trial_index":34,"time_elapsed":29746,"internal_node_id":"0.0-34.0"},{"rt":244,"stimulus":"tutorial/task_familiarization_images/part 2/6_300_95_cliqueRight_withFeedback_1.PNG","response":" ","trial_type":"image-keyboard-response","trial_index":35,"time_elapsed":29991,"internal_node_id":"0.0-35.0"},{"rt":228,"stimulus":"tutorial/task_familiarization_images/part 2/7_300_95_cliqueRight_withFeedback_2.PNG","response":" ","trial_type":"image-keyboard-response","trial_index":36,"time_elapsed":30220,"internal_node_id":"0.0-36.0"},{"rt":1052,"stimulus":"tutorial/task_familiarization_images/part 2/8_300_95_cliqueRight_withFeedback_3.PNG","response":"arrowleft","trial_type":"image-keyboard-response","trial_index":37,"time_elapsed":31274,"internal_node_id":"0.0-37.0"},{"rt":942,"stimulus":"tutorial/task_familiarization_images/part 2/9_300_95_cliqueRight_withFeedback_solution.PNG","response":" ","trial_type":"image-keyboard-response","trial_index":38,"time_elapsed":32217,"internal_node_id":"0.0-38.0"},{"rt":270,"stimulus":"tutorial/task_familiarization_images/part 2/10_300_95_cliqueRight_withFeedback_wrongAnswer.PNG","response":" ","trial_type":"image-keyboard-response","trial_index":39,"time_elapsed":32488,"internal_node_id":"0.0-39.0"},{"rt":313,"stimulus":"tutorial/task_familiarization_images/part 2/11_300_100_cliqueLeft_withFeedback_1.PNG","response":" ","trial_type":"image-keyboard-response","trial_index":40,"time_elapsed":32803,"internal_node_id":"0.0-40.0"},{"rt":195,"stimulus":"tutorial/task_familiarization_images/part 2/12_300_100_cliqueLeft_withFeedback_2.PNG","response":" ","trial_type":"image-keyboard-response","trial_index":41,"time_elapsed":32999,"internal_node_id":"0.0-41.0"},{"rt":617,"stimulus":"tutorial/task_familiarization_images/part 2/13_300_100_cliqueLeft_withFeedback_3.PNG","response":"arrowleft","trial_type":"image-keyboard-response","trial_index":42,"time_elapsed":33617,"internal_node_id":"0.0-42.0"},{"rt":496,"stimulus":"tutorial/task_familiarization_images/part 2/14_300_100_cliqueLeft_solution.PNG","response":" ","trial_type":"image-keyboard-response","trial_index":43,"time_elapsed":34114,"internal_node_id":"0.0-43.0"},{"rt":271,"stimulus":"tutorial/task_familiarization_images/part 2/15_300_100_cliqueLeft_correctAnswer.PNG","response":" ","trial_type":"image-keyboard-response","trial_index":44,"time_elapsed":34387,"internal_node_id":"0.0-44.0"},{"view_history":[{"page_index":0,"viewing_time":193}],"rt":193,"trial_type":"instructions","trial_index":45,"time_elapsed":34581,"internal_node_id":"0.0-45.0"},{"rt":90,"response":" ","nodesOrdering":[254,0,158,232,38,8,292,190,56,285,77,262,124,250,293,280,173,202,251,117,141,153,22,97,169,198,42,224,68,156,168,176,53,25,75,217,277,94,151,230,23,276,211,51,79,200,253,1,65,36,54,297,264,39,109,107,88,16,144,166,209,120,234,121,189,214,132,84,72,13,167,90,179,163,95,258,299,11,108,87,239,71,111,260,181,135,148,96,204,246,145,70,183,130,129,3,61,225,191,185,6,237,27,205,175,270,174,63,278,291,170,275,46,78,195,188,49,41,157,122,196,220,268,37,137,143,182,7,294,32,227,243,149,273,203,244,236,172,60,194,44,131,187,242,99,123,249,62,271,164,140,5,279,240,138,267,248,180,24,160,171,20,116,10,290,266,128,29,28,235,2,125,57,50,113,52,165,192,272,26,286,48,45,59,139,288,199,255,231,43,252,233,263,223,213,261,127,269,281,86,101,4,257,12,222,210,162,155,259,226,287,296,102,295,14,274,178,228,100,154,147,289,15,83,67,206,207,33,245,47,247,193,92,21,85,112,35,201,142,30,98,282,126,298,159,119,197,104,161,284,19,118,74,58,256,186,69,283,105,66,212,152,229,208,9,219,184,76,241,221,40,64,34,177,17,73,216,218,82,106,150,238,215,115,80,81,134,265,110,93,114,103,136,91,89,133,55,31,146,18],"cliqueSize":200,"correctResponse":"arrowright","presentationNumber":0,"trial_type":"canvas-keyboard-response","trial_index":46,"time_elapsed":34812,"internal_node_id":"0.0-46.0-0.0-0.0"},{"rt":577,"response":" ","nodesOrdering":[35,237,124,153,154,115,219,43,225,110,276,40,46,63,166,203,56,263,19,201,45,22,108,148,185,204,123,85,32,50,37,165,168,242,298,255,217,269,136,277,196,278,234,33,88,87,51,13,48,133,169,162,220,122,215,176,291,91,290,103,262,116,95,159,151,38,119,126,59,254,36,2,90,160,183,6,84,65,281,288,25,294,195,273,67,68,174,285,60,71,209,139,155,137,208,54,104,179,193,144,279,130,240,274,4,1,125,192,190,120,194,210,218,3,0,16,235,202,72,81,221,287,261,96,177,206,171,259,114,258,236,289,188,187,129,105,283,118,80,21,152,49,229,182,243,79,212,135,186,198,184,268,82,207,15,280,132,167,295,270,246,34,157,75,286,256,197,131,74,149,8,86,69,231,142,249,107,248,199,205,78,94,73,26,239,158,163,275,109,147,111,264,213,58,244,145,143,61,292,233,53,97,134,5,112,12,271,253,156,20,181,102,106,265,214,172,27,44,293,230,161,83,222,76,224,223,99,245,127,238,189,64,70,178,47,55,7,211,30,272,117,257,42,150,17,146,141,101,66,266,113,14,57,23,180,9,282,170,284,121,228,251,173,232,52,250,260,18,77,164,200,89,247,226,29,241,10,227,93,296,39,252,267,175,140,128,28,11,24,216,31,92,100,62,138,98,299,191,41,297],"cliqueSize":200,"correctResponse":"arrowright","presentationNumber":0,"trial_type":"canvas-keyboard-response","trial_index":47,"time_elapsed":35496,"internal_node_id":"0.0-46.1-0.1-0.1"},{"rt":89,"response":" ","nodesOrdering":[292,116,65,103,218,141,222,42,59,11,188,169,64,14,147,235,256,24,56,6,210,124,76,225,285,166,211,63,274,184,217,227,150,209,114,31,8,244,176,55,245,142,75,9,117,119,272,262,45,5,3,181,37,36,253,143,254,140,151,296,96,282,23,229,122,160,138,191,0,207,161,224,216,105,220,86,232,259,185,299,237,248,108,110,175,231,154,200,7,289,202,293,53,264,277,261,280,205,129,71,62,215,67,238,251,84,60,153,201,281,177,183,242,106,189,212,146,77,162,115,98,171,26,52,198,236,13,46,128,213,34,123,241,190,298,193,266,18,186,182,195,250,194,99,179,156,47,265,126,223,33,221,35,15,30,54,187,240,121,50,32,173,66,167,249,268,287,101,157,100,88,148,196,74,40,270,165,228,127,95,263,17,155,258,51,267,278,158,61,1,113,93,107,125,22,97,136,168,43,214,68,27,206,118,92,102,85,134,276,80,269,275,41,208,38,73,284,252,132,112,19,260,247,290,149,57,28,199,288,135,90,152,197,204,297,294,246,230,283,16,226,83,144,10,4,139,286,133,69,145,239,87,82,94,219,79,130,279,72,172,131,243,164,120,291,137,29,109,39,271,295,178,233,104,81,12,174,49,255,257,273,111,234,180,203,48,91,192,163,159,21,20,89,58,25,70,44,170,78,2],"cliqueSize":200,"correctResponse":"arrowright","presentationNumber":0,"trial_type":"canvas-keyboard-response","trial_index":48,"time_elapsed":35684,"internal_node_id":"0.0-46.2-0.2-0.2"},{"rt":4,"response":" ","nodesOrdering":[55,198,193,233,107,42,229,52,58,183,135,231,260,8,211,249,194,297,18,212,292,143,109,116,33,53,262,174,132,160,276,189,139,115,214,62,192,178,85,255,0,210,74,282,3,71,224,156,184,31,248,180,256,56,168,67,120,123,239,257,196,155,40,28,77,45,57,201,65,70,298,280,265,76,149,295,278,78,30,281,181,145,144,258,202,279,131,73,186,284,26,289,49,44,205,251,207,81,147,240,117,61,175,38,105,17,228,15,136,27,9,79,283,226,128,154,54,235,227,182,36,269,100,112,166,25,90,134,24,5,89,99,294,110,141,230,245,167,206,190,72,200,220,152,91,6,1,102,161,83,127,169,86,108,7,4,48,157,252,275,270,250,130,197,191,242,21,293,19,234,264,80,119,158,146,118,12,50,151,218,268,138,236,274,95,176,223,217,247,47,188,216,92,272,101,203,87,64,150,84,103,46,177,104,277,129,41,111,153,213,237,287,122,68,271,165,173,142,259,20,39,106,225,204,29,43,159,114,140,290,113,286,97,263,232,34,66,69,133,238,98,125,273,299,285,172,208,162,163,291,254,253,88,137,261,63,13,187,35,267,219,244,32,23,266,215,75,195,296,221,185,171,126,148,170,164,246,121,10,16,288,199,96,2,22,241,222,59,51,179,82,60,243,94,14,37,209,93,11,124],"cliqueSize":200,"correctResponse":"arrowright","presentationNumber":0,"trial_type":"canvas-keyboard-response","trial_index":49,"time_elapsed":35962,"internal_node_id":"0.0-46.3-0.3-0.3"},{"rt":5,"response":" ","nodesOrdering":[288,240,13,19,79,131,54,81,92,274,105,299,245,127,104,97,197,247,231,228,77,65,10,93,177,287,55,169,163,102,156,71,291,40,72,47,143,56,142,67,258,95,34,257,210,87,277,286,166,155,175,237,168,165,280,227,281,51,98,61,74,262,170,119,78,211,209,24,35,96,190,204,275,241,109,216,91,283,123,159,215,76,196,20,64,144,118,207,235,80,58,270,268,28,191,218,139,129,233,60,116,294,125,238,174,130,184,242,186,73,293,230,250,285,145,205,4,43,33,21,52,39,46,183,266,220,203,256,45,62,259,134,132,171,124,38,272,158,198,3,252,290,229,248,269,82,115,185,223,138,239,213,120,195,289,15,217,260,292,234,164,295,50,49,296,150,137,36,224,31,297,251,32,113,160,0,75,246,146,126,212,26,188,151,6,112,1,201,236,106,254,22,154,9,18,279,148,152,44,221,27,70,189,16,141,117,86,107,264,23,17,249,178,181,99,108,179,214,8,101,48,202,278,253,161,111,140,41,53,276,57,85,271,136,192,226,110,176,135,182,255,208,88,114,103,121,206,2,42,66,69,94,37,84,180,153,267,63,194,11,199,147,282,157,193,149,30,298,59,261,243,173,263,133,128,232,187,244,265,90,7,14,29,100,5,12,162,68,273,225,167,25,200,219,222,83,172,284,89,122],"cliqueSize":200,"correctResponse":"arrowright","presentationNumber":0,"trial_type":"canvas-keyboard-response","trial_index":50,"time_elapsed":36307,"internal_node_id":"0.0-46.4-0.4-0.4"},{"rt":4,"response":" ","nodesOrdering":[188,88,253,193,118,215,206,93,68,95,71,158,256,278,230,161,212,234,48,258,32,289,261,101,72,184,74,176,19,174,39,30,205,37,235,209,182,77,67,255,112,270,248,127,189,217,123,292,141,186,70,267,173,82,100,268,274,108,51,17,66,273,227,76,15,155,24,22,240,113,154,99,34,45,152,262,134,280,169,85,259,204,220,159,109,49,26,98,167,90,80,131,29,106,166,114,239,148,281,221,146,54,28,296,120,110,132,157,160,284,47,86,277,40,140,94,175,194,13,298,287,180,252,285,38,57,56,12,104,5,130,272,138,244,16,69,185,102,251,84,250,136,264,200,87,263,242,121,36,128,18,107,142,2,117,187,196,254,198,3,31,59,41,147,62,79,75,164,283,124,165,211,265,10,275,293,64,213,150,195,202,145,129,241,81,249,299,191,243,226,25,177,203,207,151,65,208,78,199,58,276,232,83,135,288,61,60,125,42,89,162,143,1,55,290,46,279,149,115,245,97,52,50,144,218,153,171,33,7,214,228,286,294,216,23,105,282,168,4,156,183,20,197,53,231,201,238,219,122,181,246,295,91,190,222,9,21,247,192,96,126,163,236,103,43,178,266,210,257,8,271,229,116,237,260,172,179,111,133,27,119,73,35,224,11,139,223,225,92,233,170,0,6,63,44,291,137,269,14,297],"cliqueSize":200,"correctResponse":"arrowright","presentationNumber":0,"trial_type":"canvas-keyboard-response","trial_index":51,"time_elapsed":36648,"internal_node_id":"0.0-46.5-0.5-0.5"},{"rt":208,"response":" ","nodesOrdering":[142,127,166,265,16,7,32,203,155,167,33,216,62,286,262,168,277,75,52,258,280,251,154,28,222,235,244,221,60,49,69,238,215,141,206,296,174,219,110,152,247,131,73,160,95,197,200,107,46,109,226,172,271,275,179,181,159,297,264,178,87,119,193,295,279,288,210,267,3,256,114,116,211,284,108,170,192,139,30,158,268,117,88,281,23,254,186,201,81,153,291,292,194,249,290,245,278,240,56,232,169,84,17,228,187,134,225,47,138,257,40,190,230,149,41,44,6,188,165,58,70,263,150,243,31,53,285,270,289,129,55,171,15,13,223,208,204,202,123,111,115,261,106,273,100,74,255,65,126,234,12,51,217,214,89,237,42,101,77,148,94,91,85,29,184,198,93,68,195,63,102,132,20,252,45,71,96,82,11,239,4,9,54,113,162,90,259,50,59,269,57,147,157,83,212,136,233,227,128,137,145,97,48,246,144,112,2,229,180,8,177,36,143,14,189,207,37,38,185,27,25,175,293,66,1,22,118,298,205,19,287,276,140,76,183,39,133,104,173,272,72,274,135,231,5,218,236,182,130,122,43,61,294,80,121,35,64,156,220,199,24,191,99,67,18,176,98,260,282,0,248,253,151,164,224,86,26,21,10,125,283,146,241,242,161,213,120,79,299,105,196,34,92,266,163,209,124,103,78,250],"cliqueSize":200,"correctResponse":"arrowright","presentationNumber":0,"trial_type":"canvas-keyboard-response","trial_index":52,"time_elapsed":37200,"internal_node_id":"0.0-46.6-0.6-0.6"},{"rt":767,"response":"arrowright","nodesOrdering":[209,33,263,79,123,142,78,6,49,248,234,286,150,88,117,165,101,290,158,62,222,168,279,237,224,190,281,203,298,3,126,296,76,53,283,5,48,172,166,186,1,38,111,258,30,214,198,52,137,8,116,89,91,147,13,14,108,141,233,173,216,170,23,43,96,131,114,58,178,47,215,268,271,84,229,136,93,221,252,226,15,182,212,184,174,128,157,231,179,151,193,73,134,275,97,26,92,187,107,244,213,20,238,220,197,236,127,67,254,70,189,217,54,256,291,22,206,257,65,145,156,25,277,19,21,175,188,211,153,36,146,223,106,77,51,56,55,87,130,180,204,250,295,280,245,98,10,63,94,82,282,50,100,239,41,11,161,205,86,132,163,148,125,69,122,235,171,133,227,278,264,185,121,292,66,167,103,218,201,159,37,169,129,210,113,228,251,207,138,154,7,81,39,74,115,183,259,192,181,293,12,262,18,276,273,269,119,294,266,261,200,230,68,274,272,253,241,255,109,143,243,155,75,246,112,99,34,118,29,104,16,31,71,4,144,287,105,164,61,102,46,162,2,195,83,297,40,17,289,285,225,176,95,140,270,64,60,202,9,120,194,90,288,247,242,35,208,27,45,152,265,267,85,177,124,0,284,57,32,110,219,59,72,240,249,160,199,135,232,196,28,149,139,24,260,42,191,44,80,299],"cliqueSize":200,"correctResponse":"arrowright","correctnessOfResponse":true,"presentationNumber":0,"trial_type":"canvas-keyboard-response","trial_index":53,"time_elapsed":38071,"internal_node_id":"0.0-46.7-0.7-0.7"},{"rt":710,"response":"arrowleft","nodesOrdering":[196,293,54,195,156,158,31,43,100,235,296,289,179,205,182,242,78,148,91,143,189,105,90,163,159,8,36,181,137,119,93,108,275,256,171,107,209,269,251,268,12,126,40,232,261,262,222,83,219,282,168,249,170,258,118,89,267,109,82,7,32,49,186,53,259,95,173,86,52,26,265,272,238,23,200,101,214,46,224,299,136,152,166,30,85,13,113,247,226,21,246,134,169,236,115,215,9,288,47,96,191,197,97,207,201,281,274,176,276,3,50,66,241,153,20,287,44,185,184,17,122,174,55,257,62,298,28,279,283,68,198,22,216,240,229,70,77,34,218,120,239,2,123,18,45,58,217,131,72,92,11,160,223,129,38,111,116,51,190,243,42,221,19,154,124,88,142,177,132,75,71,79,250,146,260,103,231,29,57,15,69,202,63,252,188,225,73,161,244,94,255,237,277,192,65,6,59,273,210,145,33,248,266,193,233,294,199,151,99,290,280,102,286,157,162,110,180,56,121,194,130,140,271,254,74,4,60,227,147,204,141,139,48,81,291,264,295,213,24,98,87,25,164,144,27,155,14,285,165,10,230,61,16,41,211,278,208,114,112,37,149,297,133,5,203,270,80,76,206,167,253,228,125,212,64,245,84,104,187,117,39,284,178,67,175,35,150,263,127,128,106,138,234,183,0,1,220,172,135,292],"cliqueSize":190,"correctResponse":"arrowleft","correctnessOfResponse":true,"presentationNumber":1,"trial_type":"canvas-keyboard-response","trial_index":54,"time_elapsed":38884,"internal_node_id":"0.0-47.0-0.0-0.0"},{"rt":741,"response":"arrowleft","nodesOrdering":[110,296,113,96,149,2,144,204,71,292,187,74,55,240,31,73,269,62,87,260,156,95,57,274,291,142,267,238,69,1,159,158,251,282,244,205,160,53,34,234,80,117,29,10,185,229,49,42,18,112,61,20,197,26,154,84,127,175,93,135,146,0,137,82,48,134,169,98,168,210,259,100,119,170,228,249,176,203,211,250,165,290,78,33,248,191,128,217,273,237,60,166,256,199,155,28,294,271,148,219,109,208,115,283,254,114,213,125,192,298,99,50,287,45,85,105,81,258,124,247,65,118,132,8,293,224,253,47,266,171,193,153,145,262,270,212,59,263,68,177,163,194,226,37,40,5,276,94,245,52,14,116,11,66,107,264,97,209,51,24,83,230,3,218,179,36,136,86,21,227,143,129,23,76,214,32,280,200,225,41,198,183,7,167,190,161,39,22,189,12,104,299,56,261,138,77,58,295,268,6,70,126,75,239,178,182,19,297,133,275,88,278,202,147,207,35,27,140,289,103,162,186,243,9,233,215,63,231,241,106,152,16,174,72,101,173,151,139,121,220,172,206,252,157,44,236,13,257,30,255,67,38,284,89,46,43,184,141,181,286,188,92,223,54,4,17,164,272,222,221,102,246,180,201,131,120,64,279,281,91,108,235,122,216,285,288,111,90,130,242,25,195,277,15,265,123,79,196,232,150],"cliqueSize":180,"correctResponse":"arrowleft","correctnessOfResponse":true,"presentationNumber":2,"trial_type":"canvas-keyboard-response","trial_index":55,"time_elapsed":39728,"internal_node_id":"0.0-48.0-0.0-0.0"},{"rt":829,"response":"arrowleft","nodesOrdering":[180,245,81,193,64,115,39,19,162,56,74,204,13,123,213,133,188,59,53,184,33,253,12,272,108,251,206,190,298,4,102,299,87,48,119,97,43,194,200,164,223,289,218,236,294,212,44,254,15,159,174,114,173,198,229,296,161,250,205,269,219,227,20,82,0,175,138,157,9,224,151,150,47,107,178,265,130,181,67,176,257,69,234,117,84,70,141,95,60,51,10,259,101,3,129,290,183,168,2,80,231,27,215,169,146,233,163,232,262,28,282,273,182,139,98,31,242,179,71,38,73,134,196,225,172,280,195,170,284,18,241,145,34,93,171,135,160,91,14,37,153,105,244,128,125,54,270,24,113,202,240,217,136,112,288,246,62,120,271,249,50,57,220,111,148,121,187,137,76,258,210,40,237,216,144,177,208,221,1,22,256,92,55,297,116,277,189,126,36,292,5,118,106,281,165,197,158,109,155,267,58,85,203,166,185,285,79,207,275,226,293,45,89,110,99,274,291,191,124,29,276,201,199,7,255,11,94,122,17,228,132,186,30,103,96,68,63,42,268,65,152,23,77,243,260,252,26,295,41,214,222,66,142,149,154,286,78,279,131,283,211,21,235,61,264,49,25,248,238,72,140,32,278,156,86,127,287,90,46,35,247,104,83,6,167,266,192,100,230,52,147,263,88,143,16,239,261,8,75,209],"cliqueSize":170,"correctResponse":"arrowleft","correctnessOfResponse":true,"presentationNumber":3,"trial_type":"canvas-keyboard-response","trial_index":56,"time_elapsed":40659,"internal_node_id":"0.0-49.0-0.0-0.0"},{"rt":761,"response":"arrowright","nodesOrdering":[93,132,256,127,117,12,67,253,101,33,85,14,296,82,265,34,87,140,51,86,153,194,280,204,203,291,56,177,290,245,133,125,155,0,282,32,10,233,74,266,152,78,199,259,59,94,6,120,167,19,175,16,248,295,250,39,144,149,109,273,219,96,139,240,162,251,75,58,68,25,41,237,198,118,23,279,262,31,63,61,214,260,164,146,281,128,197,13,111,227,195,35,11,252,90,185,20,138,55,134,209,258,181,201,92,64,112,238,145,169,69,294,163,178,107,277,7,217,267,5,151,298,36,70,193,121,235,1,297,257,218,168,136,223,180,57,77,207,147,66,188,247,225,48,17,142,99,232,275,3,42,236,215,113,102,62,287,80,292,170,173,26,81,60,226,202,186,103,50,148,131,192,231,141,221,124,98,104,284,150,254,271,249,28,105,119,15,65,45,220,114,130,71,283,272,157,156,234,174,43,122,38,166,200,211,54,110,210,84,126,160,208,270,278,123,191,286,261,2,95,108,230,37,288,246,213,79,289,179,47,239,205,49,89,216,100,9,184,190,8,46,21,40,183,129,76,91,137,154,24,53,116,229,212,22,83,263,29,255,274,115,165,73,158,18,268,176,159,228,244,97,222,187,44,299,196,135,52,206,88,224,143,189,161,269,106,242,172,182,243,171,285,30,264,4,276,293,27,72,241],"cliqueSize":160,"correctResponse":"arrowright","correctnessOfResponse":true,"presentationNumber":4,"trial_type":"canvas-keyboard-response","trial_index":57,"time_elapsed":41521,"internal_node_id":"0.0-50.0-0.0-0.0"},{"rt":958,"response":"arrowright","nodesOrdering":[149,105,68,293,52,50,63,227,61,10,139,296,134,237,193,59,58,158,209,222,81,27,19,182,8,204,264,72,87,166,28,2,171,218,15,287,229,207,142,179,159,70,54,217,184,122,66,238,161,18,12,175,69,172,154,37,84,115,203,132,273,196,123,242,247,74,192,97,88,76,78,265,29,285,90,298,82,40,51,135,194,213,176,22,210,144,43,96,189,162,62,38,180,291,286,128,42,241,5,136,0,85,31,145,221,23,124,225,129,4,271,170,16,104,248,151,106,276,254,261,183,274,244,64,224,152,48,211,6,99,157,262,41,277,25,299,233,187,119,126,116,98,39,178,47,275,148,20,83,268,109,188,156,92,174,147,284,32,212,75,231,45,266,198,245,252,9,95,30,117,199,93,190,295,164,121,11,283,272,281,215,186,80,46,195,223,185,239,55,73,102,206,91,236,146,71,168,57,202,279,127,257,67,33,282,35,235,288,21,1,201,17,200,77,243,267,13,65,89,249,270,155,113,125,250,251,138,214,292,150,26,79,86,219,232,246,34,278,191,258,160,60,263,140,260,100,169,205,177,173,94,130,49,131,290,220,56,255,118,143,133,240,114,111,36,259,234,108,153,269,216,7,163,14,280,226,294,53,107,181,3,208,44,110,101,167,228,141,165,103,230,256,289,120,197,253,137,297,112,24],"cliqueSize":150,"correctResponse":"arrowright","correctnessOfResponse":true,"presentationNumber":5,"trial_type":"canvas-keyboard-response","trial_index":58,"time_elapsed":42583,"internal_node_id":"0.0-51.0-0.0-0.0"},{"rt":857,"response":"arrowright","nodesOrdering":[230,96,292,50,95,138,147,218,30,207,174,121,45,270,263,63,123,133,130,253,186,244,46,99,295,197,78,122,257,164,7,168,180,272,126,100,167,173,31,68,175,131,245,8,195,290,102,44,227,165,105,288,281,160,13,69,0,12,119,81,184,271,52,118,62,56,143,215,149,260,75,70,285,193,201,26,48,107,204,208,200,37,85,9,205,152,196,42,282,148,261,179,22,111,209,55,87,233,166,172,199,16,267,38,216,140,169,296,101,188,286,10,187,135,151,275,98,25,254,210,129,294,258,41,291,142,113,190,213,237,255,5,127,77,14,183,250,86,203,137,221,277,177,223,2,236,297,11,132,136,178,89,73,43,252,79,156,264,57,66,248,23,91,176,251,115,211,114,27,202,241,232,163,235,6,92,103,189,74,93,33,206,35,185,268,293,265,61,106,84,192,222,34,259,47,225,287,83,229,88,60,299,39,108,269,139,181,198,155,162,150,4,49,276,104,161,220,18,124,214,90,228,53,298,141,262,171,191,36,256,159,194,17,58,1,239,125,266,54,19,146,59,32,238,231,109,40,24,247,28,29,116,80,128,284,234,82,249,21,112,217,3,157,15,94,243,158,242,67,170,182,20,154,279,144,246,283,76,240,145,274,117,289,97,153,278,120,72,65,64,110,219,212,51,226,134,280,273,224,71],"cliqueSize":140,"correctResponse":"arrowright","correctnessOfResponse":true,"presentationNumber":6,"trial_type":"canvas-keyboard-response","trial_index":59,"time_elapsed":43541,"internal_node_id":"0.0-52.0-0.0-0.0"},{"rt":806,"response":"arrowleft","nodesOrdering":[118,228,69,256,214,275,87,185,274,136,70,198,265,61,119,233,220,44,100,79,26,28,244,121,160,166,81,120,67,287,15,217,131,140,279,252,37,20,206,215,240,170,148,106,174,145,223,269,88,22,83,231,134,164,224,284,75,229,204,175,270,45,139,117,180,186,257,133,205,221,80,235,109,236,113,154,238,286,53,98,78,187,146,163,112,188,250,202,200,280,247,82,130,190,86,232,101,189,156,195,248,194,227,141,225,8,23,116,278,99,179,159,114,18,9,210,65,95,4,254,102,296,104,298,178,64,32,72,158,177,21,31,12,127,207,77,52,27,153,49,266,283,58,147,282,132,182,219,16,171,292,263,144,14,76,89,41,73,47,264,289,68,191,63,212,226,108,128,272,216,50,297,193,33,124,105,24,66,222,149,115,123,211,60,299,230,199,155,167,260,125,11,245,126,255,122,152,71,295,91,281,261,162,51,169,288,259,173,90,253,5,267,39,59,142,97,111,251,285,38,208,181,135,294,143,35,273,56,197,276,46,201,0,157,268,85,239,168,94,43,242,176,36,13,29,34,203,54,150,262,84,3,241,277,293,243,192,291,249,7,110,258,55,137,57,10,1,271,161,6,92,107,218,48,234,42,165,196,40,74,19,62,290,184,138,129,96,93,25,2,209,172,213,246,17,237,183,30,151,103],"cliqueSize":130,"correctResponse":"arrowleft","correctnessOfResponse":true,"presentationNumber":7,"trial_type":"canvas-keyboard-response","trial_index":60,"time_elapsed":44451,"internal_node_id":"0.0-53.0-0.0-0.0"},{"rt":770,"response":"arrowleft","nodesOrdering":[183,201,169,28,25,70,219,57,160,130,161,78,287,22,186,60,294,106,290,256,228,155,204,152,146,145,74,10,289,258,222,87,253,75,27,85,72,64,299,198,171,118,238,235,223,65,157,268,90,88,276,139,167,218,129,49,207,23,188,34,26,205,208,252,177,231,297,109,269,262,220,168,9,54,191,102,33,135,93,113,260,42,58,199,125,100,292,126,48,1,0,19,200,278,189,195,209,259,213,245,248,53,193,154,52,244,83,59,44,35,17,159,21,226,242,274,18,50,73,79,215,261,233,170,172,265,31,249,98,225,39,227,37,91,124,153,142,92,211,16,94,291,114,45,174,264,66,283,97,132,29,250,63,123,166,14,194,246,216,179,279,237,281,117,12,257,266,275,122,140,178,236,212,99,267,254,61,40,32,112,255,46,101,7,95,175,133,202,147,111,150,144,136,67,192,148,131,229,282,224,298,197,158,110,181,115,241,239,214,8,251,13,71,116,2,149,247,165,36,127,210,221,104,176,296,47,277,185,3,20,56,11,240,187,89,234,86,15,196,151,184,217,6,121,5,41,230,62,77,84,272,164,295,270,107,143,138,293,38,68,69,76,82,180,55,284,80,288,173,285,4,162,280,286,203,190,43,163,182,206,134,30,105,128,271,243,232,24,137,156,103,120,96,273,263,51,108,119,141,81],"cliqueSize":120,"correctResponse":"arrowleft","correctnessOfResponse":true,"presentationNumber":8,"trial_type":"canvas-keyboard-response","trial_index":61,"time_elapsed":45324,"internal_node_id":"0.0-54.0-0.0-0.0"},{"rt":927,"response":"arrowleft","nodesOrdering":[59,270,219,8,7,134,86,185,163,146,75,52,32,64,61,3,9,23,287,292,103,273,137,108,21,187,298,111,112,72,107,255,251,89,217,17,53,28,250,140,247,20,62,26,201,54,157,38,83,133,60,294,102,93,216,150,37,188,194,149,235,281,171,2,56,161,238,267,40,272,167,295,71,30,42,46,41,221,274,252,155,199,257,88,14,122,35,4,65,44,129,11,106,124,170,116,268,240,177,48,100,57,151,277,1,45,162,253,109,50,148,297,166,165,96,16,212,203,127,39,114,77,29,218,232,204,227,248,113,192,254,160,126,280,36,195,191,223,290,198,5,128,242,70,289,234,31,209,84,120,193,173,263,228,200,68,202,51,97,152,210,215,0,258,117,220,284,265,143,27,158,123,74,205,168,230,288,182,101,138,183,80,94,256,144,172,231,233,291,237,69,269,98,285,226,141,259,55,156,25,99,82,19,225,211,261,12,104,6,132,179,136,81,79,229,15,118,90,278,176,73,266,18,110,139,214,283,154,208,239,92,293,244,224,189,153,181,264,296,135,271,262,206,222,24,213,196,130,245,207,175,180,276,47,33,105,299,147,78,43,76,121,260,87,63,249,10,190,85,145,279,164,275,95,34,22,58,142,115,131,246,174,49,282,66,119,169,91,184,243,186,286,236,197,178,13,159,125,67,241],"cliqueSize":110,"correctResponse":"arrowleft","correctnessOfResponse":true,"presentationNumber":9,"trial_type":"canvas-keyboard-response","trial_index":62,"time_elapsed":46356,"internal_node_id":"0.0-55.0-0.0-0.0"},{"rt":902,"response":"arrowright","nodesOrdering":[189,173,205,259,146,17,19,115,262,248,260,142,170,197,100,112,56,237,6,10,3,181,16,180,24,285,206,174,47,226,263,233,294,133,289,254,191,252,190,27,287,299,227,11,120,93,244,243,130,58,275,2,79,138,163,231,208,33,83,48,269,137,204,232,29,288,167,219,228,23,161,258,89,242,114,91,249,121,15,88,94,32,149,54,230,51,34,8,95,7,25,171,247,156,98,85,236,117,223,67,172,284,69,235,218,281,148,139,134,274,251,270,186,118,217,122,295,13,87,22,86,225,246,107,145,62,162,59,159,188,125,39,71,280,271,183,97,265,165,168,44,14,96,229,144,108,282,72,220,155,273,111,106,129,286,157,175,40,199,35,245,123,185,124,241,52,68,266,135,209,28,279,264,84,113,20,55,221,12,268,66,82,166,267,1,213,109,176,152,78,179,38,276,216,105,214,272,81,290,46,195,49,37,192,169,74,211,0,201,292,151,240,291,239,42,140,298,141,104,184,136,224,153,4,50,127,215,31,103,45,65,77,57,250,203,283,76,207,293,60,253,73,261,278,296,21,5,53,234,43,202,222,164,154,178,200,26,119,41,101,194,36,255,177,256,238,92,126,90,160,18,158,102,75,187,210,132,116,212,147,70,196,257,110,9,64,63,80,131,193,182,277,128,297,143,150,198,99,30,61],"cliqueSize":100,"correctResponse":"arrowright","correctnessOfResponse":true,"presentationNumber":10,"trial_type":"canvas-keyboard-response","trial_index":63,"time_elapsed":47360,"internal_node_id":"0.0-56.0-0.0-0.0"},{"rt":866,"response":"arrowleft","nodesOrdering":[126,151,197,112,226,286,188,150,153,124,154,4,7,60,133,5,218,252,221,222,53,36,203,162,299,285,38,163,130,214,135,73,187,246,54,158,33,91,259,8,134,115,260,207,266,159,273,288,198,172,152,277,9,292,296,281,111,209,237,146,201,224,57,23,65,243,177,196,131,283,183,245,250,213,272,149,80,101,230,97,257,236,132,123,68,280,22,215,141,109,16,25,156,45,95,56,147,31,164,66,186,249,43,76,82,83,118,69,235,58,185,274,114,137,71,102,169,247,86,100,20,205,46,270,290,182,200,165,242,125,142,105,232,289,225,228,92,191,93,239,15,174,78,284,21,160,217,193,254,75,138,18,275,261,139,173,119,128,44,170,14,190,11,238,37,195,144,51,24,85,271,106,262,212,287,256,233,251,140,103,48,168,206,265,216,87,39,84,70,202,81,276,107,210,136,127,47,13,143,241,268,42,267,258,29,108,297,49,64,62,41,184,298,10,199,181,122,3,12,59,148,264,96,99,79,155,27,223,240,117,61,278,279,161,52,229,220,179,194,129,72,6,19,291,189,2,244,145,32,227,116,120,175,0,110,113,269,1,55,171,294,88,34,248,234,231,176,178,180,282,67,63,255,50,104,74,293,26,219,166,35,295,89,204,211,157,98,192,94,263,28,253,121,77,17,208,90,167,30,40],"cliqueSize":90,"correctResponse":"arrowleft","correctnessOfResponse":true,"presentationNumber":11,"trial_type":"canvas-keyboard-response","trial_index":64,"time_elapsed":48334,"internal_node_id":"0.0-57.0-0.0-0.0"},{"rt":2108,"response":"arrowleft","nodesOrdering":[115,0,227,244,69,125,4,272,211,150,166,55,174,188,30,126,142,47,277,200,45,290,210,98,231,22,206,287,298,114,102,141,27,294,18,205,12,198,249,116,155,259,262,278,21,35,3,157,240,29,177,63,109,1,204,96,187,133,264,2,153,7,274,296,267,89,270,295,275,46,64,39,137,76,26,77,81,79,252,57,74,92,144,67,238,143,105,60,146,219,147,112,85,170,90,234,86,10,70,88,28,284,110,197,66,261,149,161,215,218,175,167,254,44,171,212,235,189,289,202,54,95,87,103,117,124,33,154,286,181,40,135,37,14,118,82,120,268,242,11,246,276,5,36,186,279,20,59,213,138,119,61,65,266,291,226,164,269,131,6,260,203,91,71,83,273,256,160,223,15,51,73,288,258,13,222,239,31,214,184,263,25,145,97,299,9,16,225,178,193,250,134,53,159,209,172,34,113,56,130,176,136,297,169,32,228,191,41,121,104,52,285,68,253,93,43,245,128,111,148,207,283,127,173,180,255,281,179,123,293,183,42,163,224,72,122,280,108,152,165,129,241,156,208,257,196,292,80,230,50,282,251,237,243,247,232,248,216,23,201,75,271,194,38,107,99,106,265,48,236,158,17,182,185,162,168,94,192,221,220,19,84,190,139,62,233,195,132,49,100,199,151,229,78,8,217,58,140,101,24],"cliqueSize":80,"correctResponse":"arrowleft","correctnessOfResponse":true,"presentationNumber":12,"trial_type":"canvas-keyboard-response","trial_index":65,"time_elapsed":50550,"internal_node_id":"0.0-58.0-0.0-0.0"},{"rt":1663,"response":" ","nodesOrdering":[93,49,120,0,211,278,229,236,149,250,90,99,129,276,227,298,92,124,280,55,215,249,30,186,177,274,195,16,15,163,246,78,213,64,2,181,128,138,197,58,53,265,160,27,134,111,101,80,88,21,39,19,148,14,150,42,170,146,108,144,81,212,126,85,48,17,52,38,106,44,240,141,194,74,269,204,263,200,205,29,164,24,245,71,210,62,87,86,199,180,96,288,154,196,116,234,153,162,147,119,161,295,297,208,104,206,289,22,23,97,84,95,185,287,190,125,45,152,171,251,145,198,254,193,36,247,1,184,75,73,117,158,218,109,121,79,178,157,241,258,67,224,135,50,143,100,133,20,172,47,256,188,60,292,296,34,6,7,203,191,232,54,231,122,270,127,166,286,187,192,113,189,41,68,209,10,57,98,91,202,114,136,165,233,277,142,131,291,266,228,35,261,11,31,118,26,123,77,70,82,230,107,8,272,285,63,243,252,220,56,12,175,253,43,3,110,237,105,260,262,169,201,257,5,248,283,281,214,226,132,103,155,267,156,72,183,264,9,176,89,140,159,279,290,4,112,259,174,223,217,33,61,219,13,46,139,282,83,293,273,40,102,255,76,28,65,275,299,59,284,168,294,242,130,216,268,225,207,179,221,151,222,94,51,37,182,25,69,239,244,115,238,137,271,32,167,18,173,235,66],"cliqueSize":70,"correctResponse":"arrowright","presentationNumber":13,"trial_type":"canvas-keyboard-response","trial_index":66,"time_elapsed":52315,"internal_node_id":"0.0-59.0-0.0-0.0"},{"rt":850,"response":" ","nodesOrdering":[292,124,159,252,226,98,8,195,155,138,193,104,188,172,243,231,171,12,180,45,256,161,215,63,131,116,125,242,148,279,135,291,24,75,87,246,77,91,3,54,216,286,296,156,5,168,119,224,197,133,190,121,89,182,80,236,201,196,93,111,37,15,73,107,268,33,52,22,28,208,235,217,23,47,250,17,232,285,173,206,294,2,177,275,229,130,166,60,213,128,49,39,61,263,0,43,59,85,257,92,88,158,19,120,29,112,146,53,18,282,114,113,11,74,109,14,57,145,233,249,222,154,97,194,72,189,160,227,30,21,83,142,260,219,118,241,42,290,298,143,94,228,258,86,64,50,299,81,152,289,170,84,38,288,51,214,96,140,16,175,41,101,295,251,237,164,150,210,209,139,162,199,90,203,136,31,62,127,267,82,144,25,9,7,132,100,192,137,255,55,272,46,212,1,95,27,10,244,186,35,126,238,220,269,204,70,110,264,153,117,76,106,67,13,271,165,202,69,26,211,122,184,103,40,254,198,265,278,225,205,48,179,99,191,151,20,78,287,102,281,293,284,234,163,223,174,276,123,218,149,183,115,248,274,259,157,273,230,245,169,221,147,253,134,68,247,297,56,58,262,65,79,181,32,44,239,129,176,167,178,283,108,66,187,270,207,280,34,261,266,200,71,240,6,141,185,36,105,277,4],"cliqueSize":70,"correctResponse":"arrowright","presentationNumber":13,"trial_type":"canvas-keyboard-response","trial_index":67,"time_elapsed":53268,"internal_node_id":"0.0-59.1-0.1-0.1"},{"rt":609,"response":"arrowright","nodesOrdering":[252,232,38,253,45,4,59,287,122,212,276,93,1,155,204,194,20,66,23,192,92,35,10,80,134,233,106,26,251,50,51,202,75,200,61,132,7,129,32,210,127,62,240,158,73,181,100,171,55,159,207,37,31,238,297,183,221,205,286,230,110,105,12,81,174,178,99,17,3,87,249,108,47,60,43,39,8,82,281,213,119,187,36,121,271,179,246,162,184,64,101,27,180,191,226,131,275,209,164,284,277,254,95,21,229,83,88,236,166,175,245,272,44,149,69,0,148,15,116,257,176,157,248,97,237,143,265,289,109,185,172,137,242,13,293,219,91,130,57,152,150,231,90,239,244,270,19,295,77,278,160,49,288,68,126,216,259,46,258,139,263,189,282,228,53,9,22,54,274,165,195,186,65,145,142,114,156,98,296,167,266,261,267,125,294,41,154,123,14,198,33,115,76,153,63,283,18,141,25,124,215,218,269,104,291,56,290,34,72,208,133,107,74,70,260,78,234,227,86,224,151,40,67,268,256,225,85,190,102,2,113,217,247,24,147,201,292,144,241,235,220,138,16,199,222,173,285,94,5,161,52,48,79,299,136,168,112,28,196,250,29,243,71,279,177,170,140,128,264,30,117,206,118,169,6,58,135,223,182,103,273,89,203,262,255,111,280,193,214,163,96,146,84,211,11,120,197,42,188,298],"cliqueSize":70,"correctResponse":"arrowright","correctnessOfResponse":true,"presentationNumber":13,"trial_type":"canvas-keyboard-response","trial_index":68,"time_elapsed":53980,"internal_node_id":"0.0-59.2-0.2-0.2"},{"rt":660,"response":" ","nodesOrdering":[265,32,100,79,131,158,226,117,132,65,99,107,21,45,8,82,280,263,84,229,35,290,266,218,25,138,190,291,61,156,121,243,71,134,220,63,135,52,145,215,269,191,217,197,73,66,68,69,185,224,130,182,235,202,241,87,0,256,193,64,123,122,289,271,164,238,288,249,252,30,206,167,126,19,201,172,228,88,93,81,20,246,113,97,284,174,120,245,128,163,268,150,51,7,178,230,296,24,170,91,59,200,155,72,262,42,198,83,221,137,17,96,232,112,4,162,43,189,108,250,187,282,225,272,248,114,37,118,192,109,261,62,124,148,111,12,70,160,2,36,146,40,67,298,293,227,11,208,38,166,125,28,13,116,154,54,169,103,184,139,237,34,279,85,33,140,29,294,214,3,27,44,181,173,199,104,195,56,127,168,10,253,297,18,41,23,257,244,115,106,175,186,144,176,159,101,136,267,141,286,258,46,219,90,188,16,142,119,211,75,153,133,143,277,242,49,259,275,58,264,212,6,151,254,60,110,14,177,283,80,276,231,165,274,204,205,278,77,26,129,273,48,9,147,53,5,251,89,152,149,299,255,247,194,209,234,295,236,196,207,15,240,180,161,102,55,22,203,39,1,78,105,171,179,183,98,222,47,86,292,92,260,74,50,285,233,213,76,216,94,287,239,95,157,31,57,210,281,270,223],"cliqueSize":60,"correctResponse":"arrowright","presentationNumber":14,"trial_type":"canvas-keyboard-response","trial_index":69,"time_elapsed":54746,"internal_node_id":"0.0-60.0-0.0-0.0"},{"rt":745,"response":" ","nodesOrdering":[47,176,14,45,155,193,225,25,38,73,292,40,151,275,16,175,41,22,288,233,86,262,67,141,96,265,200,252,188,101,152,83,295,197,26,107,54,186,148,212,52,294,24,222,136,149,81,19,297,266,90,178,286,298,122,6,137,134,93,291,219,130,237,194,202,218,115,56,57,110,185,220,256,74,217,236,42,72,283,245,66,103,36,131,9,190,253,32,181,46,271,259,2,78,37,63,97,228,166,293,92,177,105,99,205,215,80,39,143,127,51,227,55,210,196,146,94,187,195,162,147,20,135,240,124,180,234,65,213,211,287,167,49,129,126,243,68,182,109,226,208,69,241,272,260,85,76,239,79,209,153,139,140,8,133,112,106,172,223,191,169,114,0,116,235,4,18,207,27,214,61,164,206,277,255,120,289,144,250,117,201,35,64,145,179,75,224,3,173,1,59,128,102,58,232,104,279,60,263,10,5,229,21,269,43,157,270,231,82,247,192,274,62,276,163,84,282,11,108,168,216,273,121,184,98,159,254,171,118,261,125,183,160,111,31,248,258,15,299,119,158,238,34,70,230,280,71,95,246,91,33,204,53,189,284,138,296,28,150,154,30,88,12,285,123,198,44,142,165,174,203,7,249,89,87,50,48,156,268,257,281,264,161,170,242,29,251,199,77,278,221,13,267,23,290,132,244,113,17,100],"cliqueSize":60,"correctResponse":"arrowright","presentationNumber":14,"trial_type":"canvas-keyboard-response","trial_index":70,"time_elapsed":55599,"internal_node_id":"0.0-60.1-0.1-0.1"},{"rt":683,"response":" ","nodesOrdering":[96,185,260,25,149,167,203,258,99,77,6,101,114,130,138,1,15,195,175,44,74,136,189,155,73,238,66,18,205,283,131,170,91,210,290,145,273,287,8,50,105,118,212,70,103,89,29,56,229,108,22,125,78,206,161,188,254,127,248,14,60,53,2,173,215,88,21,276,275,123,219,119,174,37,267,239,20,129,295,204,171,49,191,144,54,208,165,27,253,286,68,234,97,90,176,115,98,245,13,59,107,207,26,226,222,194,139,251,10,247,154,80,69,38,264,232,227,168,228,64,40,157,225,172,142,192,62,214,296,216,92,85,36,255,111,135,177,285,126,94,179,182,112,153,166,289,241,268,146,32,122,236,102,202,160,17,104,169,246,250,86,252,199,51,48,162,23,116,5,197,31,147,259,33,217,277,151,65,39,297,47,28,265,218,279,11,106,81,120,242,46,201,163,209,9,140,186,298,76,95,156,272,223,43,55,159,263,249,180,193,224,34,261,221,270,4,164,84,75,67,87,284,280,117,124,79,152,19,143,294,271,0,181,141,121,132,35,178,3,148,7,71,184,256,266,24,183,72,262,100,52,128,190,293,133,41,63,220,244,274,278,282,113,93,110,243,57,231,30,299,187,269,61,198,213,12,237,211,82,257,42,83,16,292,158,58,137,230,109,288,150,200,235,233,45,134,281,291,240,196],"cliqueSize":60,"correctResponse":"arrowright","presentationNumber":14,"trial_type":"canvas-keyboard-response","trial_index":71,"time_elapsed":56384,"internal_node_id":"0.0-60.2-0.2-0.2"},{"rt":627,"response":"arrowright","nodesOrdering":[235,179,227,150,213,137,140,291,251,69,231,186,8,233,190,200,187,238,3,189,276,59,10,85,117,192,2,208,111,172,42,91,147,73,290,41,241,84,278,64,252,244,54,255,115,94,113,243,82,49,216,122,77,28,15,206,292,160,93,162,157,180,214,226,78,76,282,225,63,201,74,119,164,92,183,174,177,170,175,280,254,264,65,273,217,173,120,295,149,288,128,148,178,163,202,67,230,263,131,32,30,126,80,47,14,43,60,136,158,279,20,35,159,71,215,229,166,250,31,283,293,155,209,193,68,44,236,245,7,0,194,101,176,256,284,259,239,151,114,281,141,248,133,205,99,124,298,266,40,212,253,242,100,211,219,299,207,39,224,105,289,51,45,18,81,21,222,132,277,72,83,29,118,249,104,48,98,234,129,107,272,55,11,112,1,108,53,57,46,34,182,285,188,267,274,195,232,50,79,257,109,171,156,199,12,223,191,37,33,6,24,62,165,154,95,146,121,294,89,13,4,240,138,87,152,5,184,130,75,90,27,258,153,88,297,271,116,246,16,218,196,38,102,269,123,142,169,19,161,275,228,237,70,203,262,145,61,125,26,296,167,103,58,185,247,198,261,97,23,56,286,135,270,221,86,127,265,143,168,181,52,36,96,197,260,210,220,139,106,22,25,287,134,17,144,66,204,9,110,268],"cliqueSize":60,"correctResponse":"arrowright","correctnessOfResponse":true,"presentationNumber":14,"trial_type":"canvas-keyboard-response","trial_index":72,"time_elapsed":57123,"internal_node_id":"0.0-60.3-0.3-0.3"},{"rt":597,"response":" ","nodesOrdering":[234,61,62,193,262,194,47,250,149,162,299,199,67,216,110,55,60,170,73,206,191,271,287,163,71,98,153,173,9,201,214,160,107,285,130,226,257,69,275,113,3,265,267,270,286,155,292,14,96,66,218,243,81,109,291,68,222,37,192,13,30,111,278,157,140,141,102,94,280,238,142,125,70,272,266,165,232,178,242,29,229,239,105,103,181,297,161,195,99,34,293,237,187,202,258,176,50,274,227,25,298,172,90,112,177,164,131,219,182,24,2,49,80,233,146,17,174,45,8,143,58,22,223,5,288,11,21,261,57,42,136,135,54,20,18,196,273,290,122,158,269,190,119,123,184,156,217,51,95,144,108,209,295,114,93,188,200,79,253,129,124,101,154,281,92,145,268,6,247,132,189,100,289,97,32,127,91,117,296,31,245,84,259,167,75,159,46,264,282,10,116,56,150,179,211,248,44,41,26,4,169,166,210,249,230,183,215,86,120,168,43,251,204,220,138,59,48,78,12,85,277,208,118,27,65,252,231,198,255,279,106,115,152,276,241,74,197,294,207,19,225,244,186,235,23,40,38,134,205,180,88,77,72,36,82,87,28,126,15,133,260,83,89,121,39,52,148,137,185,128,254,224,236,151,16,147,33,139,1,64,246,240,263,0,203,63,7,175,213,283,212,53,228,284,221,256,104,171,35,76],"cliqueSize":50,"correctResponse":"arrowright","presentationNumber":15,"trial_type":"canvas-keyboard-response","trial_index":73,"time_elapsed":57826,"internal_node_id":"0.0-61.0-0.0-0.0"},{"rt":601,"response":" ","nodesOrdering":[248,70,48,157,63,0,176,274,117,287,295,197,206,243,39,69,112,169,108,220,64,239,202,76,281,284,214,36,101,160,100,210,79,180,130,266,4,142,153,268,11,54,276,49,20,72,59,247,115,104,145,209,181,132,173,182,233,7,154,150,263,30,189,299,6,221,133,261,22,151,196,192,91,50,232,24,47,229,34,75,297,178,58,86,213,138,208,25,60,35,285,177,193,223,272,71,83,275,68,38,218,23,165,141,207,230,245,81,111,67,158,205,294,226,168,9,269,144,73,187,224,288,109,170,95,292,163,80,94,13,92,87,110,41,107,137,298,136,88,264,14,225,62,282,37,241,114,33,246,2,188,66,259,219,184,164,12,273,121,204,195,98,203,8,271,134,140,103,102,149,51,162,99,156,31,283,280,293,82,19,260,45,124,183,29,236,228,262,215,42,238,244,255,172,279,106,17,237,190,56,277,46,135,201,235,146,240,252,53,249,131,84,159,55,270,61,186,143,126,105,18,291,250,77,125,216,289,122,166,28,52,278,1,5,155,89,10,212,57,179,256,199,242,74,211,175,171,26,257,152,85,96,116,44,253,118,296,97,234,120,286,217,90,21,254,161,200,194,185,113,65,198,129,139,227,15,265,167,27,43,16,78,147,123,251,148,231,191,258,119,222,32,127,40,3,93,174,128,267,290],"cliqueSize":50,"correctResponse":"arrowright","presentationNumber":15,"trial_type":"canvas-keyboard-response","trial_index":74,"time_elapsed":58534,"internal_node_id":"0.0-61.1-0.1-0.1"},{"rt":606,"response":" ","nodesOrdering":[7,262,88,228,227,184,211,206,210,145,235,111,291,87,268,41,209,128,63,104,49,25,84,197,95,101,143,122,115,121,6,244,296,177,106,132,218,130,119,22,140,214,267,216,239,5,109,94,28,54,60,48,131,282,99,190,68,24,46,127,21,240,246,188,8,23,200,98,149,64,9,272,45,110,207,277,264,247,297,12,20,16,245,19,208,274,71,213,97,293,146,89,222,152,284,257,40,155,92,117,252,77,44,175,26,229,165,159,176,81,58,147,261,186,276,241,278,100,103,123,153,11,120,226,135,50,249,298,198,65,255,256,290,223,57,3,59,36,251,236,221,201,263,275,237,194,273,142,154,258,2,163,29,217,108,52,39,181,37,270,279,271,148,196,27,62,10,90,33,17,189,219,83,289,85,224,294,166,242,82,180,254,253,139,295,220,114,30,174,158,38,55,169,70,96,113,199,136,134,161,42,79,230,124,51,265,4,192,162,204,202,105,66,15,173,299,160,107,292,75,203,260,118,193,280,125,187,212,231,67,170,137,156,80,144,78,43,47,215,138,0,157,53,102,283,150,91,168,172,126,205,288,183,185,167,238,61,76,133,32,74,195,18,259,281,35,116,243,269,286,151,93,248,191,285,179,112,69,171,164,233,34,73,86,287,56,72,250,31,141,178,225,234,1,232,13,266,14,129,182],"cliqueSize":50,"correctResponse":"arrowright","presentationNumber":15,"trial_type":"canvas-keyboard-response","trial_index":75,"time_elapsed":59243,"internal_node_id":"0.0-61.2-0.2-0.2"},{"rt":1003,"response":"arrowright","nodesOrdering":[181,259,229,262,93,60,246,44,70,123,143,86,173,18,204,169,263,113,232,226,255,26,147,277,191,189,274,294,22,228,81,205,261,16,5,155,222,57,177,210,165,166,161,202,216,250,264,188,97,180,9,249,56,254,145,132,0,27,8,182,156,283,69,36,72,290,139,137,224,298,15,280,119,91,174,198,227,121,90,193,88,117,287,116,234,64,190,107,281,4,265,212,85,245,209,42,92,124,25,58,288,63,252,192,73,187,244,266,144,195,223,37,98,109,65,237,241,186,67,52,208,286,13,47,94,171,278,214,257,45,238,129,38,149,2,248,258,7,84,75,100,292,219,105,146,140,233,160,126,162,21,184,172,43,151,108,207,154,1,20,59,243,125,115,102,230,103,218,114,159,131,291,78,135,83,39,275,34,122,256,167,142,11,71,82,77,196,247,74,61,178,55,133,127,203,253,220,284,104,211,41,50,29,267,112,95,183,62,157,138,79,3,221,6,30,251,273,134,128,106,197,176,51,32,297,231,272,185,194,269,118,49,80,225,141,31,201,296,282,276,120,289,168,153,215,33,87,54,66,148,53,23,12,299,48,19,14,179,46,163,150,295,279,242,268,217,28,136,170,271,293,101,164,35,199,17,239,110,235,175,130,213,236,40,206,285,89,68,76,152,96,10,240,200,270,99,158,24,111,260],"cliqueSize":50,"correctResponse":"arrowright","correctnessOfResponse":true,"presentationNumber":15,"trial_type":"canvas-keyboard-response","trial_index":76,"time_elapsed":60337,"internal_node_id":"0.0-61.3-0.3-0.3"},{"rt":667,"response":" ","nodesOrdering":[240,76,152,22,27,190,220,298,160,178,52,10,232,199,149,182,106,269,196,195,231,137,37,277,294,86,188,116,295,282,203,48,291,72,261,126,13,103,275,197,42,60,151,20,64,212,223,94,249,244,31,163,59,56,171,36,91,296,214,69,125,26,30,115,16,234,98,194,183,129,290,246,146,92,145,95,70,93,202,3,90,134,141,4,89,225,58,284,208,67,237,82,157,43,193,270,224,88,257,268,32,12,162,148,132,44,253,272,143,155,213,276,167,24,228,180,87,177,187,200,285,165,281,211,288,50,204,35,9,191,104,250,245,263,14,262,216,164,209,6,168,79,259,34,74,96,65,166,71,150,198,283,256,260,266,156,21,273,242,101,278,169,45,186,63,62,55,97,239,159,265,66,179,124,189,23,111,207,0,119,170,243,11,229,140,17,258,158,77,286,289,206,280,51,113,5,99,7,255,279,235,25,38,108,299,185,135,251,264,114,147,81,154,221,153,68,230,142,41,218,175,100,110,118,107,293,217,105,29,219,57,241,201,267,292,176,133,112,78,226,102,173,210,252,47,161,19,233,83,222,128,287,49,127,297,274,254,238,184,54,39,144,122,8,120,271,18,53,138,28,85,33,174,15,1,123,46,181,205,139,247,227,80,192,172,215,75,73,131,130,109,236,117,121,248,61,2,136,40,84],"cliqueSize":40,"correctResponse":"arrowleft","presentationNumber":16,"trial_type":"canvas-keyboard-response","trial_index":77,"time_elapsed":61107,"internal_node_id":"0.0-62.0-0.0-0.0"},{"rt":631,"response":" ","nodesOrdering":[81,196,199,267,84,120,43,261,90,52,32,23,68,136,36,8,282,59,95,205,165,237,260,281,61,19,252,56,21,175,107,88,200,245,18,83,242,134,185,159,158,49,284,26,210,166,236,89,234,191,211,11,168,75,286,113,153,207,235,40,194,277,244,285,276,274,152,133,161,130,192,125,229,197,141,38,202,39,247,184,92,150,154,269,206,17,195,77,183,298,264,66,24,262,9,31,96,221,101,156,55,257,109,253,255,34,25,278,174,12,228,163,178,145,268,63,20,135,72,62,30,232,124,222,33,296,103,249,287,147,216,126,140,155,203,169,67,226,139,57,87,208,180,201,14,73,105,60,131,69,265,118,143,288,119,246,213,44,218,54,41,224,290,50,271,294,292,6,48,0,225,132,64,182,122,223,27,35,256,91,299,129,82,1,115,58,280,97,170,138,293,151,186,111,10,215,266,179,289,254,263,164,190,37,259,42,198,94,231,85,53,189,146,144,230,104,258,272,110,51,114,148,238,177,248,173,80,46,127,204,279,108,117,78,99,65,283,295,241,149,15,47,128,98,29,243,291,240,275,212,16,227,137,270,4,2,70,251,71,162,76,297,22,116,86,142,233,45,188,167,157,74,220,176,121,193,93,13,123,28,100,102,171,209,239,160,181,172,250,106,5,3,112,273,219,217,187,79,7,214],"cliqueSize":40,"correctResponse":"arrowleft","presentationNumber":16,"trial_type":"canvas-keyboard-response","trial_index":78,"time_elapsed":61844,"internal_node_id":"0.0-62.1-0.1-0.1"},{"rt":616,"response":" ","nodesOrdering":[126,165,11,237,1,63,64,102,118,291,210,295,244,131,224,208,139,44,259,87,140,158,25,10,240,183,75,69,74,232,236,273,264,32,220,200,241,288,119,293,216,213,272,4,136,276,181,222,65,12,56,193,106,287,55,60,109,192,137,164,135,174,80,214,58,279,54,124,229,262,170,100,238,249,73,98,274,219,163,292,116,166,39,284,22,127,123,29,59,247,148,35,177,223,245,261,15,62,6,254,147,143,155,299,267,296,297,99,53,83,5,146,270,171,108,205,197,13,235,89,169,96,290,16,227,41,78,38,150,285,196,162,266,46,185,211,141,42,278,49,134,239,88,144,260,226,202,175,233,17,280,153,33,215,24,282,157,19,253,125,14,281,84,61,160,77,250,265,81,103,154,190,43,122,128,34,47,40,101,152,255,72,50,7,151,289,256,230,36,67,149,286,9,94,37,57,298,257,212,129,0,85,107,112,191,156,70,27,2,142,179,97,231,221,188,206,8,92,168,138,121,48,71,133,275,18,26,28,251,246,217,176,194,23,182,277,199,21,82,51,105,159,45,132,111,258,52,173,3,283,294,271,248,189,201,114,79,268,113,207,242,76,228,110,93,209,172,161,178,252,130,120,218,145,117,104,203,269,204,30,180,195,187,234,31,66,263,184,20,225,86,243,91,167,95,68,198,115,90,186],"cliqueSize":40,"correctResponse":"arrowleft","presentationNumber":16,"trial_type":"canvas-keyboard-response","trial_index":79,"time_elapsed":62561,"internal_node_id":"0.0-62.2-0.2-0.2"},{"rt":560,"response":" ","nodesOrdering":[199,274,71,267,50,210,122,127,92,142,236,131,121,271,299,155,258,49,201,249,173,259,285,213,79,153,175,56,253,237,262,74,77,93,135,280,34,102,23,58,194,179,15,64,106,73,189,123,273,11,48,147,101,55,197,112,113,22,72,89,204,133,295,283,90,119,223,109,282,136,110,144,239,27,162,265,254,291,235,215,8,28,76,152,96,1,185,224,181,193,70,10,7,120,2,191,180,103,29,263,21,186,44,85,60,202,37,294,132,24,166,244,9,19,255,31,13,229,4,12,128,212,172,105,209,176,169,150,170,221,198,297,124,250,234,241,78,5,165,143,288,42,43,75,203,188,279,111,69,18,125,159,264,231,205,261,39,25,99,95,184,260,276,97,14,167,277,246,40,298,161,57,98,251,164,163,146,53,32,108,0,100,252,84,278,45,87,270,178,158,154,256,287,216,214,65,82,104,247,17,46,228,230,211,177,94,47,35,208,275,296,59,139,62,233,86,3,61,225,220,145,217,114,187,171,206,80,16,268,138,286,272,248,257,130,63,192,190,284,115,183,140,238,245,151,266,68,118,226,88,182,148,292,54,168,242,269,116,41,289,207,219,195,232,126,66,117,91,30,218,157,107,200,149,20,240,156,174,26,222,51,134,290,81,137,67,33,38,293,196,6,160,227,243,36,129,141,52,281,83],"cliqueSize":40,"correctResponse":"arrowleft","presentationNumber":16,"trial_type":"canvas-keyboard-response","trial_index":80,"time_elapsed":63228,"internal_node_id":"0.0-62.3-0.3-0.3"},{"rt":727,"response":"arrowright","nodesOrdering":[4,240,226,213,21,248,159,97,140,20,120,149,233,124,270,255,189,50,185,170,36,61,107,287,299,102,232,84,220,103,195,194,77,46,152,168,5,247,11,24,39,163,186,203,125,286,267,151,229,62,88,17,166,27,63,254,105,253,56,236,275,132,208,44,161,239,219,55,139,34,109,210,48,100,290,190,148,235,251,237,118,13,15,272,196,162,129,246,281,117,293,8,35,261,22,250,211,164,178,174,280,87,268,216,111,297,37,92,2,206,212,52,295,175,154,192,82,0,123,60,182,298,141,292,138,188,244,145,54,156,227,32,95,200,158,167,113,135,165,160,106,128,28,9,276,257,173,171,26,225,86,191,197,136,155,47,130,96,199,57,222,282,25,126,14,258,183,23,110,133,201,83,172,169,30,214,114,45,157,58,29,176,51,283,19,85,228,116,7,81,104,278,144,72,74,66,269,249,274,70,263,38,256,98,79,265,273,93,224,179,101,42,119,277,67,296,49,134,221,91,264,252,6,53,193,41,223,202,215,231,108,1,16,218,180,217,131,284,238,112,94,59,10,150,68,285,146,121,177,291,99,40,204,234,31,3,75,143,18,242,245,147,294,230,76,65,137,260,198,89,181,184,80,241,127,33,43,153,288,262,115,289,209,207,142,122,205,64,12,71,69,73,243,90,266,271,259,187,78,279],"cliqueSize":40,"correctResponse":"arrowleft","correctnessOfResponse":false,"presentationNumber":16,"trial_type":"canvas-keyboard-response","trial_index":81,"time_elapsed":64061,"internal_node_id":"0.0-62.4-0.4-0.4"},{"rt":555,"response":" ","nodesOrdering":[59,216,247,10,33,201,295,97,283,298,110,253,290,6,103,169,52,92,142,87,88,258,9,8,297,109,37,282,96,187,20,250,163,292,257,279,204,260,4,93,243,24,291,90,46,125,0,278,268,194,35,266,157,113,277,212,27,182,118,185,230,49,293,39,199,76,62,48,235,265,107,239,144,214,238,57,83,184,151,208,115,288,22,137,14,272,251,129,141,245,166,226,192,255,112,225,252,273,150,21,139,195,269,167,134,102,254,5,222,74,271,158,111,198,174,256,203,219,190,106,148,205,119,75,121,12,276,64,23,232,84,274,61,233,56,116,122,168,171,224,81,218,28,71,50,11,181,296,286,215,173,213,229,209,78,234,72,162,25,189,281,99,55,294,179,183,159,40,152,145,77,188,94,95,58,227,120,164,42,155,127,17,263,143,246,60,242,161,231,18,177,264,73,104,237,29,165,32,244,68,67,267,86,36,259,176,284,54,1,70,221,154,289,65,26,38,270,202,15,7,2,178,275,241,191,240,124,82,172,126,236,123,63,53,285,200,3,228,85,210,147,175,34,170,135,80,108,280,133,43,156,51,101,186,47,41,248,79,31,98,19,13,197,220,217,89,180,262,91,66,136,128,138,206,132,207,223,30,130,299,193,44,16,149,117,261,160,287,196,105,45,153,69,249,114,211,140,146,131,100],"cliqueSize":30,"correctResponse":"arrowright","presentationNumber":17,"trial_type":"canvas-keyboard-response","trial_index":82,"time_elapsed":64722,"internal_node_id":"0.0-63.0-0.0-0.0"},{"rt":641,"response":" ","nodesOrdering":[34,219,142,162,145,25,128,292,111,290,247,223,64,240,121,10,33,285,40,257,278,132,245,45,242,208,73,20,101,22,299,60,92,220,274,255,131,263,210,262,90,294,17,194,225,52,156,70,231,87,181,213,26,200,222,224,3,91,261,161,38,23,291,177,72,27,283,133,36,238,106,16,226,130,201,216,99,110,93,4,267,221,103,212,288,31,53,276,170,123,80,28,8,258,184,293,266,32,62,182,284,11,175,173,134,150,189,227,12,104,129,158,100,169,176,119,42,82,139,233,192,63,214,235,66,165,246,19,254,172,56,206,13,236,138,269,43,205,155,69,185,188,256,39,116,79,24,272,68,279,44,127,146,265,86,112,203,157,271,168,0,1,9,120,282,58,217,180,232,47,153,85,260,244,163,241,171,18,107,71,137,259,281,211,195,164,54,234,61,50,160,204,78,198,151,76,174,136,249,140,248,15,67,250,273,125,114,65,193,154,115,30,75,126,186,280,6,135,166,29,148,230,179,102,289,122,277,243,298,144,209,59,89,84,48,268,105,124,187,7,108,21,251,96,117,95,143,94,199,287,88,270,228,77,297,215,2,183,229,37,35,286,202,190,83,57,98,191,159,252,147,55,264,207,239,5,296,41,149,74,97,81,218,197,152,196,167,49,141,295,109,113,51,178,275,237,253,14,46,118],"cliqueSize":30,"correctResponse":"arrowright","presentationNumber":17,"trial_type":"canvas-keyboard-response","trial_index":83,"time_elapsed":65468,"internal_node_id":"0.0-63.1-0.1-0.1"},{"rt":625,"response":" ","nodesOrdering":[96,262,208,286,248,72,91,19,35,297,25,245,204,32,193,158,67,299,182,219,229,228,76,65,290,10,29,150,175,255,218,209,178,44,45,128,153,281,24,198,43,180,246,71,33,247,145,138,166,119,104,154,90,264,222,161,269,142,279,114,217,288,232,54,86,256,0,63,6,49,124,263,226,141,5,75,210,60,92,298,260,234,27,132,122,242,115,275,62,184,186,106,26,103,273,203,107,162,57,59,140,192,21,220,69,99,173,167,295,239,131,296,183,46,277,37,270,221,206,34,278,79,189,52,266,111,282,51,146,187,1,126,258,101,56,127,133,12,81,55,2,70,105,285,22,168,121,3,68,224,113,244,9,11,202,257,120,130,100,191,40,42,251,190,118,48,199,261,267,18,17,148,156,230,237,294,30,143,289,61,87,149,108,82,47,157,283,213,38,36,155,78,179,58,236,233,188,28,287,152,231,135,109,265,181,252,169,139,110,53,97,66,136,185,112,196,250,194,174,93,253,20,77,164,151,284,134,235,172,64,223,272,197,15,83,280,274,74,243,214,13,216,129,95,215,31,225,116,200,23,276,212,227,268,123,159,205,137,259,249,177,240,98,171,163,201,125,102,211,176,94,50,254,14,80,293,89,39,88,8,73,16,238,84,7,147,195,271,41,165,241,4,85,160,207,117,292,170,291,144],"cliqueSize":30,"correctResponse":"arrowright","presentationNumber":17,"trial_type":"canvas-keyboard-response","trial_index":84,"time_elapsed":66196,"internal_node_id":"0.0-63.2-0.2-0.2"},{"rt":594,"response":"arrowleft","nodesOrdering":[126,128,26,53,82,35,155,25,170,93,188,244,178,257,179,156,40,72,105,113,209,236,185,63,258,234,41,24,118,260,9,293,65,58,44,85,1,259,60,107,130,219,110,51,112,235,220,61,168,12,97,212,90,84,175,296,164,224,252,243,215,197,246,91,15,87,114,99,50,34,184,250,131,80,294,169,267,20,119,106,210,143,253,54,157,238,205,151,280,140,284,141,288,283,297,158,248,213,59,287,101,10,275,19,217,160,200,89,39,245,221,71,207,165,100,22,154,78,38,137,150,121,8,104,36,198,162,6,29,48,285,232,111,204,123,242,281,62,277,57,173,152,269,192,31,183,247,177,268,190,193,206,227,289,262,117,92,290,28,166,240,16,43,159,135,149,56,222,187,116,218,21,256,261,239,49,203,225,5,299,133,102,45,249,13,196,147,271,214,181,231,291,265,226,146,33,167,211,11,295,7,264,83,95,109,32,286,108,229,2,88,276,237,0,73,255,272,77,279,145,182,47,66,79,216,199,171,298,230,4,142,46,139,254,163,191,96,14,180,94,266,52,278,176,37,138,125,251,76,208,3,132,174,148,27,120,186,75,17,23,195,274,122,74,282,263,223,18,64,194,172,124,189,161,270,115,129,201,42,103,67,273,98,202,81,134,127,55,228,241,70,86,153,144,30,68,292,233,69,136],"cliqueSize":30,"correctResponse":"arrowright","correctnessOfResponse":false,"presentationNumber":17,"trial_type":"canvas-keyboard-response","trial_index":85,"time_elapsed":66895,"internal_node_id":"0.0-63.3-0.3-0.3"},{"rt":610,"response":" ","nodesOrdering":[255,145,219,133,5,204,31,216,275,88,49,281,230,173,113,98,142,15,41,82,212,139,296,183,106,190,95,121,36,277,271,168,226,161,295,233,223,13,143,229,27,287,28,274,132,157,292,209,43,215,203,248,156,170,195,214,222,144,25,149,33,221,0,283,239,286,84,37,72,93,211,177,289,114,265,65,3,169,100,59,9,165,227,176,224,61,23,80,118,259,263,191,71,63,279,285,241,120,199,246,231,48,60,8,50,73,174,202,26,182,210,85,155,245,273,116,34,137,70,238,40,21,282,244,258,125,107,130,105,112,55,99,124,101,136,138,81,16,83,62,66,186,1,129,179,240,122,268,30,167,180,299,197,261,54,250,251,32,51,152,150,154,103,108,91,115,104,22,205,75,266,45,163,151,171,270,135,10,44,162,201,39,237,188,86,131,207,164,117,97,57,159,206,24,200,187,166,64,260,109,264,134,297,2,178,128,217,256,4,242,278,294,76,127,17,6,52,102,298,68,247,126,7,141,253,79,290,146,153,293,184,46,291,111,175,58,194,185,38,232,252,87,148,42,89,19,67,56,78,276,213,228,218,267,110,35,262,198,272,249,234,77,74,123,243,20,269,158,193,254,236,69,29,172,181,96,94,11,53,147,140,257,192,189,196,208,280,284,90,225,288,18,92,14,119,47,12,160,220,235],"cliqueSize":20,"correctResponse":"arrowleft","presentationNumber":18,"trial_type":"canvas-keyboard-response","trial_index":86,"time_elapsed":67605,"internal_node_id":"0.0-64.0-0.0-0.0"},{"rt":644,"response":" ","nodesOrdering":[54,201,211,114,26,152,88,135,242,124,289,224,7,66,265,78,62,263,268,209,258,294,251,266,51,144,70,255,64,219,296,106,286,86,232,95,192,173,223,45,299,137,102,277,241,168,175,243,13,139,110,118,126,151,49,104,157,90,27,191,245,121,40,273,233,140,256,134,163,270,261,85,136,297,169,46,103,238,178,176,81,193,111,171,1,142,222,197,133,117,229,247,239,145,23,249,235,205,119,194,39,271,156,101,292,36,55,207,189,225,33,153,220,147,63,47,30,221,99,146,73,275,5,57,65,11,199,260,282,42,6,37,93,4,44,9,280,226,218,166,100,98,253,113,234,89,38,17,53,291,284,21,0,244,14,196,159,283,180,141,115,61,202,184,94,183,84,298,160,167,237,293,96,59,195,174,116,204,58,52,236,213,212,231,164,25,240,252,210,198,16,206,172,112,8,179,35,162,248,12,43,257,129,20,264,80,24,2,214,288,56,149,295,274,285,182,186,181,92,31,158,278,187,203,87,200,120,267,67,32,22,60,19,188,150,208,97,107,74,125,50,272,217,79,287,72,230,105,138,259,71,123,3,148,250,165,154,185,228,18,76,41,83,190,29,170,246,132,279,215,227,216,109,254,69,161,269,130,91,10,122,131,82,262,68,281,77,143,34,127,177,108,128,276,290,155,48,15,28,75],"cliqueSize":20,"correctResponse":"arrowleft","presentationNumber":18,"trial_type":"canvas-keyboard-response","trial_index":87,"time_elapsed":68352,"internal_node_id":"0.0-64.1-0.1-0.1"},{"rt":509,"response":" ","nodesOrdering":[194,153,102,25,298,72,119,210,253,76,88,240,243,241,96,71,120,206,227,221,159,151,203,131,267,100,67,268,3,136,128,239,43,107,75,30,205,275,47,293,252,299,178,165,69,262,33,146,144,142,45,135,32,280,7,109,181,38,57,14,236,276,219,161,196,259,170,167,35,247,222,61,154,187,216,223,70,59,179,174,4,101,281,214,248,89,207,127,78,256,106,48,16,147,295,63,296,9,228,44,54,292,157,235,41,213,190,261,284,288,65,266,87,108,126,143,85,158,84,229,46,64,150,279,92,27,125,40,116,283,60,139,15,230,297,1,13,233,28,12,95,2,91,6,278,191,171,149,130,286,265,272,86,212,129,176,124,166,104,5,22,114,74,188,192,269,162,117,145,141,73,237,148,200,140,55,244,94,52,156,270,137,10,31,291,34,173,110,62,39,138,163,56,199,177,112,204,122,183,93,250,277,82,264,182,77,218,164,133,17,8,254,273,274,211,231,185,50,36,18,255,169,282,209,20,172,111,97,26,21,103,66,113,208,79,202,58,23,290,37,258,11,234,118,251,49,155,99,68,215,225,249,226,195,80,238,263,90,224,160,285,105,257,193,98,83,168,260,19,0,201,189,53,175,123,24,242,246,29,51,184,294,232,245,134,287,198,180,186,220,271,197,217,132,115,152,289,121,81,42],"cliqueSize":20,"correctResponse":"arrowleft","presentationNumber":18,"trial_type":"canvas-keyboard-response","trial_index":88,"time_elapsed":68969,"internal_node_id":"0.0-64.2-0.2-0.2"},{"rt":785,"response":"arrowleft","nodesOrdering":[218,253,249,69,157,260,199,115,53,26,54,13,235,205,70,203,273,103,236,244,49,48,15,61,101,266,217,281,8,108,242,94,272,21,188,243,290,279,82,104,231,159,270,172,91,263,150,175,117,280,232,136,155,264,174,265,299,282,178,78,151,164,255,3,209,198,14,76,6,35,73,24,98,186,81,25,34,223,132,116,72,11,233,110,80,194,55,176,141,42,210,154,143,250,0,39,147,234,276,184,123,289,77,192,193,212,297,41,144,137,189,84,86,200,171,237,190,267,62,96,43,284,261,262,142,85,118,207,16,46,28,57,182,64,248,247,131,183,18,165,213,100,285,227,146,140,27,191,197,66,277,68,125,271,114,93,222,259,75,133,17,211,63,225,45,220,202,71,204,2,124,238,201,291,126,67,206,196,129,254,36,245,216,296,292,195,256,47,168,170,20,87,149,52,286,10,102,127,29,275,135,99,107,161,120,177,239,1,158,38,128,241,214,274,88,65,90,295,37,92,109,179,31,162,134,60,119,187,287,4,240,83,33,169,59,9,278,79,148,268,50,163,113,283,269,122,167,166,252,130,7,145,230,246,152,44,121,288,138,139,173,180,89,156,5,258,257,32,215,105,56,97,22,298,30,251,219,12,229,181,112,294,106,185,224,23,40,228,58,221,226,208,51,74,153,111,160,19,95,293],"cliqueSize":20,"correctResponse":"arrowleft","correctnessOfResponse":true,"presentationNumber":18,"trial_type":"canvas-keyboard-response","trial_index":89,"time_elapsed":69864,"internal_node_id":"0.0-64.3-0.3-0.3"},{"rt":490,"response":" ","nodesOrdering":[109,293,296,254,214,77,32,270,117,80,11,157,104,225,96,14,216,13,183,83,65,205,190,156,250,150,87,19,286,149,91,253,106,75,122,209,78,140,1,93,202,221,43,17,113,144,170,68,110,264,245,2,271,228,74,100,114,238,184,196,128,133,90,54,222,164,41,299,115,82,276,171,131,243,282,152,148,186,218,0,146,154,139,127,290,234,71,189,192,46,22,145,241,277,56,18,50,38,240,176,194,174,143,135,279,155,62,60,36,249,217,58,206,129,103,161,211,203,177,262,280,236,232,267,23,268,61,3,124,136,179,265,198,165,201,126,244,166,5,97,137,172,8,98,42,102,27,169,132,44,220,247,89,237,269,107,125,227,219,53,231,86,257,242,37,224,207,25,295,159,30,213,95,248,284,40,168,233,81,278,29,266,141,292,15,79,235,246,76,252,9,92,256,70,275,10,55,101,195,162,85,167,263,142,12,208,130,67,39,294,21,4,33,147,259,251,287,239,281,274,261,73,111,289,28,185,173,120,34,7,215,16,230,210,180,226,47,112,134,272,160,204,24,49,105,99,200,199,26,260,108,121,116,64,212,283,229,188,72,191,255,175,187,66,48,57,223,258,118,151,182,52,20,138,181,158,94,59,6,63,119,197,193,35,297,123,291,31,163,51,273,88,45,153,298,84,69,178,288,285],"cliqueSize":10,"correctResponse":"arrowright","presentationNumber":19,"trial_type":"canvas-keyboard-response","trial_index":90,"time_elapsed":70463,"internal_node_id":"0.0-65.0-0.0-0.0"},{"rt":679,"response":" ","nodesOrdering":[212,262,231,120,26,53,51,200,233,65,276,298,58,7,213,64,254,80,176,143,49,135,144,98,225,123,10,193,260,17,222,96,215,62,188,292,118,238,288,136,181,61,159,289,185,4,43,107,85,68,261,265,194,23,90,259,81,54,126,299,101,116,177,115,121,205,251,21,234,55,56,210,286,170,273,94,271,78,249,195,211,70,209,89,190,130,201,199,86,83,275,150,202,109,95,179,252,97,16,282,138,264,37,191,73,108,100,244,133,75,163,174,57,281,164,226,35,125,24,296,129,102,15,279,155,216,25,180,142,162,258,44,224,278,230,161,28,169,106,34,277,69,134,267,27,66,255,214,88,198,141,124,165,220,272,18,182,248,239,131,186,105,168,290,114,12,171,32,228,167,229,246,77,253,269,245,33,192,223,227,270,13,263,111,189,160,203,45,266,297,232,240,256,140,39,9,117,5,173,67,29,208,287,71,250,72,157,110,293,149,152,76,291,219,283,151,127,235,236,84,166,82,59,50,19,139,237,147,48,241,36,242,204,91,3,137,207,42,87,285,0,156,196,41,197,128,294,38,184,2,60,92,113,14,257,268,187,243,218,145,119,47,274,22,74,112,63,31,11,8,122,154,158,153,284,79,183,6,20,103,146,280,46,104,99,178,247,221,175,93,132,148,172,40,217,295,206,52,1,30],"cliqueSize":10,"correctResponse":"arrowright","presentationNumber":19,"trial_type":"canvas-keyboard-response","trial_index":91,"time_elapsed":71247,"internal_node_id":"0.0-65.1-0.1-0.1"},{"rt":675,"response":"arrowleft","nodesOrdering":[8,163,40,251,194,144,12,286,217,246,298,43,93,41,91,239,268,146,266,229,262,113,228,101,261,103,148,238,213,28,199,195,274,134,176,107,4,7,65,203,253,166,233,36,68,79,56,66,118,111,15,185,124,84,21,240,145,18,37,174,33,230,211,187,138,119,209,285,263,42,207,154,236,279,250,110,178,136,62,60,269,260,132,258,48,26,290,190,57,16,30,112,115,257,271,282,77,32,80,98,126,243,122,294,232,249,27,67,85,216,75,147,292,181,164,31,24,182,129,71,191,201,72,83,197,291,175,204,224,245,183,95,276,172,5,205,0,225,59,215,177,160,295,64,226,206,63,39,109,139,108,155,242,277,202,273,192,102,61,100,265,173,141,188,135,171,252,17,120,210,140,198,149,38,53,184,45,105,125,2,143,289,189,54,161,73,235,223,288,23,270,278,180,293,44,179,49,130,267,153,212,70,127,123,156,231,247,35,1,106,170,121,133,200,152,159,128,46,116,86,25,158,227,51,137,275,297,222,193,88,74,299,6,19,186,14,157,169,55,214,264,142,219,47,162,89,196,272,117,92,280,167,22,96,114,104,87,165,281,151,50,13,10,248,256,99,3,76,254,11,90,150,52,221,29,20,58,237,69,218,9,168,244,255,284,208,241,283,220,78,234,296,97,287,131,34,259,81,94,82],"cliqueSize":10,"correctResponse":"arrowright","correctnessOfResponse":false,"presentationNumber":19,"trial_type":"canvas-keyboard-response","trial_index":92,"time_elapsed":72027,"internal_node_id":"0.0-65.2-0.2-0.2"}]