[{"view_history":[{"page_index":0,"viewing_time":2404},{"page_index":1,"viewing_time":471}],"rt":2875,"trial_type":"instructions","trial_index":0,"time_elapsed":2876,"internal_node_id":"0.0-0.0"},{"success":true,"timeout":false,"failed_images":[],"failed_audio":[],"failed_video":[],"trial_type":"preload","trial_index":1,"time_elapsed":2936,"internal_node_id":"0.0-1.0"},{"view_history":[{"page_index":0,"viewing_time":420},{"page_index":1,"viewing_time":186},{"page_index":2,"viewing_time":181},{"page_index":3,"viewing_time":152},{"page_index":4,"viewing_time":171},{"page_index":5,"viewing_time":164},{"page_index":6,"viewing_time":157},{"page_index":7,"viewing_time":164},{"page_index":8,"viewing_time":160},{"page_index":9,"viewing_time":163},{"page_index":10,"viewing_time":3132},{"page_index":11,"viewing_time":132},{"page_index":12,"viewing_time":145},{"page_index":13,"viewing_time":146},{"page_index":14,"viewing_time":145},{"page_index":15,"viewing_time":146},{"page_index":16,"viewing_time":152},{"page_index":17,"viewing_time":148},{"page_index":18,"viewing_time":154},{"page_index":19,"viewing_time":140},{"page_index":20,"viewing_time":113},{"page_index":21,"viewing_time":186},{"page_index":22,"viewing_time":148},{"page_index":23,"viewing_time":150},{"page_index":24,"viewing_time":159},{"page_index":25,"viewing_time":158},{"page_index":26,"viewing_time":160},{"page_index":27,"viewing_time":150},{"page_index":28,"viewing_time":156},{"page_index":29,"viewing_time":153},{"page_index":30,"viewing_time":154},{"page_index":31,"viewing_time":149},{"page_index":32,"viewing_time":221},{"page_index":33,"viewing_time":170},{"page_index":34,"viewing_time":168},{"page_index":35,"viewing_time":165},{"page_index":36,"viewing_time":164},{"page_index":37,"viewing_time":174},{"page_index":38,"viewing_time":175},{"page_index":39,"viewing_time":175},{"page_index":40,"viewing_time":170},{"page_index":41,"viewing_time":167},{"page_index":42,"viewing_time":173},{"page_index":43,"viewing_time":161},{"page_index":44,"viewing_time":167},{"page_index":45,"viewing_time":172},{"page_index":46,"viewing_time":162},{"page_index":47,"viewing_time":174},{"page_index":48,"viewing_time":180},{"page_index":49,"viewing_time":159},{"page_index":50,"viewing_time":175},{"page_index":51,"viewing_time":155},{"page_index":52,"viewing_time":171},{"page_index":53,"viewing_time":159},{"page_index":54,"viewing_time":167},{"page_index":55,"viewing_time":176},{"page_index":56,"viewing_time":167},{"page_index":57,"viewing_time":172},{"page_index":58,"viewing_time":161},{"page_index":59,"viewing_time":171},{"page_index":60,"viewing_time":166},{"page_index":61,"viewing_time":168},{"page_index":62,"viewing_time":171},{"page_index":63,"viewing_time":175},{"page_index":64,"viewing_time":179},{"page_index":65,"viewing_time":178},{"page_index":66,"viewing_time":143},{"page_index":67,"viewing_time":260},{"page_index":68,"viewing_time":210},{"page_index":69,"viewing_time":181},{"page_index":70,"viewing_time":185}],"rt":14978,"trial_type":"instructions","trial_index":2,"time_elapsed":17921,"internal_node_id":"0.0-2.0"},{"view_history":[{"page_index":0,"viewing_time":916}],"rt":917,"trial_type":"instructions","trial_index":3,"time_elapsed":18838,"internal_node_id":"0.0-3.0"},{"success":true,"timeout":false,"failed_images":[],"failed_audio":[],"failed_video":[],"trial_type":"preload","trial_index":4,"time_elapsed":18871,"internal_node_id":"0.0-4.0"},{"rt":351,"stimulus":"tutorial/task_familiarization_images/part 1/1_N300_K170_cliqueRight_question1.PNG","response":" ","trial_type":"image-keyboard-response","trial_index":5,"time_elapsed":19223,"internal_node_id":"0.0-5.0"},{"rt":196,"stimulus":"tutorial/task_familiarization_images/part 1/2_N300_K170_cliqueRight_question2.PNG","response":" ","trial_type":"image-keyboard-response","trial_index":6,"time_elapsed":19420,"internal_node_id":"0.0-6.0"},{"rt":933,"stimulus":"tutorial/task_familiarization_images/part 1/3_N300_K170_cliqueRight_question3.PNG","response":"arrowleft","trial_type":"image-keyboard-response","trial_index":7,"time_elapsed":20355,"internal_node_id":"0.0-7.0"},{"rt":872,"stimulus":"tutorial/task_familiarization_images/part 1/4_N300_K170_cliqueRight_solution.PNG","response":" ","trial_type":"image-keyboard-response","trial_index":8,"time_elapsed":21229,"internal_node_id":"0.0-8.0"},{"rt":192,"stimulus":"tutorial/task_familiarization_images/part 1/5_N300_K120_cliqueRight_question1.PNG","response":" ","trial_type":"image-keyboard-response","trial_index":9,"time_elapsed":21423,"internal_node_id":"0.0-9.0"},{"rt":210,"stimulus":"tutorial/task_familiarization_images/part 1/6_N300_K120_cliqueRight_question2.PNG","response":" ","trial_type":"image-keyboard-response","trial_index":10,"time_elapsed":21634,"internal_node_id":"0.0-10.0"},{"rt":557,"stimulus":"tutorial/task_familiarization_images/part 1/7_N300_K120_cliqueRight_question3.PNG","response":"arrowleft","trial_type":"image-keyboard-response","trial_index":11,"time_elapsed":22193,"internal_node_id":"0.0-11.0"},{"rt":391,"stimulus":"tutorial/task_familiarization_images/part 1/8_N300_K120_cliqueRight_solution.PNG","response":" ","trial_type":"image-keyboard-response","trial_index":12,"time_elapsed":22586,"internal_node_id":"0.0-12.0"},{"rt":223,"stimulus":"tutorial/task_familiarization_images/part 1/9_N300_K90_cliqueLeft_question1.PNG","response":" ","trial_type":"image-keyboard-response","trial_index":13,"time_elapsed":22811,"internal_node_id":"0.0-13.0"},{"rt":177,"stimulus":"tutorial/task_familiarization_images/part 1/10_N300_K90_cliqueLeft_question2.PNG","response":" ","trial_type":"image-keyboard-response","trial_index":14,"time_elapsed":22990,"internal_node_id":"0.0-14.0"},{"rt":431,"stimulus":"tutorial/task_familiarization_images/part 1/11_N300_K90_cliqueLeft_question3.PNG","response":"arrowright","trial_type":"image-keyboard-response","trial_index":15,"time_elapsed":23422,"internal_node_id":"0.0-15.0"},{"rt":344,"stimulus":"tutorial/task_familiarization_images/part 1/12_N300_K90_cliqueLeft_solution.PNG","response":" ","trial_type":"image-keyboard-response","trial_index":16,"time_elapsed":23767,"internal_node_id":"0.0-16.0"},{"rt":205,"stimulus":"tutorial/task_familiarization_images/part 1/13_N300_K140_cliqueLeft_question1.PNG","response":" ","trial_type":"image-keyboard-response","trial_index":17,"time_elapsed":23973,"internal_node_id":"0.0-17.0"},{"rt":183,"stimulus":"tutorial/task_familiarization_images/part 1/14_N300_K140_cliqueLeft_question2.PNG","response":" ","trial_type":"image-keyboard-response","trial_index":18,"time_elapsed":24157,"internal_node_id":"0.0-18.0"},{"rt":566,"stimulus":"tutorial/task_familiarization_images/part 1/15_N300_K140_cliqueLeft_question3.PNG","response":"arrowright","trial_type":"image-keyboard-response","trial_index":19,"time_elapsed":24725,"internal_node_id":"0.0-19.0"},{"rt":396,"stimulus":"tutorial/task_familiarization_images/part 1/16_N300_K140_cliqueLeft_solution.PNG","response":" ","trial_type":"image-keyboard-response","trial_index":20,"time_elapsed":25122,"internal_node_id":"0.0-20.0"},{"rt":210,"stimulus":"tutorial/task_familiarization_images/part 1/17_N300_K70_cliqueRight_question1.PNG","response":" ","trial_type":"image-keyboard-response","trial_index":21,"time_elapsed":25333,"internal_node_id":"0.0-21.0"},{"rt":190,"stimulus":"tutorial/task_familiarization_images/part 1/18_N300_K70_cliqueRight_question2.PNG","response":" ","trial_type":"image-keyboard-response","trial_index":22,"time_elapsed":25525,"internal_node_id":"0.0-22.0"},{"rt":491,"stimulus":"tutorial/task_familiarization_images/part 1/19_N300_K70_cliqueRight_question3.PNG","response":"arrowleft","trial_type":"image-keyboard-response","trial_index":23,"time_elapsed":26017,"internal_node_id":"0.0-23.0"},{"rt":308,"stimulus":"tutorial/task_familiarization_images/part 1/20_N300_K70_cliqueRight_solution.PNG","response":" ","trial_type":"image-keyboard-response","trial_index":24,"time_elapsed":26326,"internal_node_id":"0.0-24.0"},{"rt":213,"stimulus":"tutorial/task_familiarization_images/part 1/21_N300_K100_cliqueLeft_question1.PNG","response":" ","trial_type":"image-keyboard-response","trial_index":25,"time_elapsed":26560,"internal_node_id":"0.0-25.0"},{"rt":188,"stimulus":"tutorial/task_familiarization_images/part 1/22_N300_K100_cliqueLeft_question2.PNG","response":" ","trial_type":"image-keyboard-response","trial_index":26,"time_elapsed":26749,"internal_node_id":"0.0-26.0"},{"rt":619,"stimulus":"tutorial/task_familiarization_images/part 1/23_N300_K100_cliqueLeft_question3.PNG","response":"arrowright","trial_type":"image-keyboard-response","trial_index":27,"time_elapsed":27369,"internal_node_id":"0.0-27.0"},{"rt":215,"stimulus":"tutorial/task_familiarization_images/part 1/24_N300_K100_cliqueLeft_solution.PNG","response":" ","trial_type":"image-keyboard-response","trial_index":28,"time_elapsed":27585,"internal_node_id":"0.0-28.0"},{"success":true,"timeout":false,"failed_images":[],"failed_audio":[],"failed_video":[],"trial_type":"preload","trial_index":29,"time_elapsed":27621,"internal_node_id":"0.0-29.0"},{"rt":192,"stimulus":"tutorial/task_familiarization_images/part 2/1_300_120_cliqueLeft_withFeedback_1.PNG","response":" ","trial_type":"image-keyboard-response","trial_index":30,"time_elapsed":27814,"internal_node_id":"0.0-30.0"},{"rt":340,"stimulus":"tutorial/task_familiarization_images/part 2/2_300_120_cliqueLeft_withFeedback_2.PNG","response":" ","trial_type":"image-keyboard-response","trial_index":31,"time_elapsed":28155,"internal_node_id":"0.0-31.0"},{"rt":619,"stimulus":"tutorial/task_familiarization_images/part 2/3_300_120_cliqueLeft_withFeedback_3.PNG","response":"arrowleft","trial_type":"image-keyboard-response","trial_index":32,"time_elapsed":28776,"internal_node_id":"0.0-32.0"},{"rt":215,"stimulus":"tutorial/task_familiarization_images/part 2/4_300_120_cliqueLeft_withFeedback_solution.PNG","response":" ","trial_type":"image-keyboard-response","trial_index":33,"time_elapsed":28992,"internal_node_id":"0.0-33.0"},{"rt":266,"stimulus":"tutorial/task_familiarization_images/part 2/5_300_120_cliqueLeft_withFeedback_correctAnswer.PNG","response":" ","trial_type":"image-keyboard-response","trial_index":34,"time_elapsed":29259,"internal_node_id":"0.0-34.0"},{"rt":242,"stimulus":"tutorial/task_familiarization_images/part 2/6_300_95_cliqueRight_withFeedback_1.PNG","response":" ","trial_type":"image-keyboard-response","trial_index":35,"time_elapsed":29503,"internal_node_id":"0.0-35.0"},{"rt":210,"stimulus":"tutorial/task_familiarization_images/part 2/7_300_95_cliqueRight_withFeedback_2.PNG","response":" ","trial_type":"image-keyboard-response","trial_index":36,"time_elapsed":29714,"internal_node_id":"0.0-36.0"},{"rt":510,"stimulus":"tutorial/task_familiarization_images/part 2/8_300_95_cliqueRight_withFeedback_3.PNG","response":"arrowleft","trial_type":"image-keyboard-response","trial_index":37,"time_elapsed":30226,"internal_node_id":"0.0-37.0"},{"rt":214,"stimulus":"tutorial/task_familiarization_images/part 2/9_300_95_cliqueRight_withFeedback_solution.PNG","response":" ","trial_type":"image-keyboard-response","trial_index":38,"time_elapsed":30442,"internal_node_id":"0.0-38.0"},{"rt":242,"stimulus":"tutorial/task_familiarization_images/part 2/10_300_95_cliqueRight_withFeedback_wrongAnswer.PNG","response":" ","trial_type":"image-keyboard-response","trial_index":39,"time_elapsed":30686,"internal_node_id":"0.0-39.0"},{"rt":208,"stimulus":"tutorial/task_familiarization_images/part 2/11_300_100_cliqueLeft_withFeedback_1.PNG","response":" ","trial_type":"image-keyboard-response","trial_index":40,"time_elapsed":30895,"internal_node_id":"0.0-40.0"},{"rt":203,"stimulus":"tutorial/task_familiarization_images/part 2/12_300_100_cliqueLeft_withFeedback_2.PNG","response":" ","trial_type":"image-keyboard-response","trial_index":41,"time_elapsed":31099,"internal_node_id":"0.0-41.0"},{"rt":613,"stimulus":"tutorial/task_familiarization_images/part 2/13_300_100_cliqueLeft_withFeedback_3.PNG","response":"arrowleft","trial_type":"image-keyboard-response","trial_index":42,"time_elapsed":31713,"internal_node_id":"0.0-42.0"},{"rt":436,"stimulus":"tutorial/task_familiarization_images/part 2/14_300_100_cliqueLeft_solution.PNG","response":" ","trial_type":"image-keyboard-response","trial_index":43,"time_elapsed":32151,"internal_node_id":"0.0-43.0"},{"rt":337,"stimulus":"tutorial/task_familiarization_images/part 2/15_300_100_cliqueLeft_correctAnswer.PNG","response":" ","trial_type":"image-keyboard-response","trial_index":44,"time_elapsed":32505,"internal_node_id":"0.0-44.0"},{"view_history":[{"page_index":0,"viewing_time":236}],"rt":237,"trial_type":"instructions","trial_index":45,"time_elapsed":32743,"internal_node_id":"0.0-45.0"},{"rt":1098,"response":" ","nodesOrdering":[138,111,97,19,42,57,61,183,119,134,63,33,278,51,201,87,109,221,107,290,84,295,244,182,267,26,224,78,207,17,169,4,96,28,252,7,101,262,206,104,248,32,158,277,123,220,194,98,257,185,202,232,246,55,293,74,242,124,263,227,240,66,77,231,141,209,163,196,127,0,259,173,2,166,168,95,285,177,287,167,269,37,162,153,272,226,49,219,81,133,171,91,251,76,193,247,112,132,72,20,249,176,23,204,146,108,265,148,30,184,225,178,126,235,82,298,186,275,45,198,175,230,142,16,223,264,199,160,181,75,174,48,38,289,179,83,93,140,294,155,256,188,92,143,280,99,279,3,103,261,73,212,9,40,79,131,253,24,237,10,260,216,205,35,213,136,170,215,283,245,21,152,8,192,165,128,214,125,36,116,270,208,85,139,46,29,56,80,117,15,86,11,266,233,296,67,120,149,273,22,255,250,106,13,115,187,271,137,236,218,297,156,243,299,286,229,145,211,200,25,68,53,58,105,41,154,65,12,189,59,197,113,94,274,6,172,122,238,239,90,110,234,71,118,114,39,147,135,217,18,282,70,241,144,60,228,292,27,52,281,195,203,64,210,157,102,54,150,43,5,50,100,222,47,34,151,69,130,14,190,159,62,284,258,276,291,44,180,129,161,31,191,121,288,88,164,268,89,1,254],"cliqueSize":200,"correctResponse":"arrowright","presentationNumber":0,"trial_type":"canvas-keyboard-response","trial_index":46,"time_elapsed":33995,"internal_node_id":"0.0-46.0-0.0-0.0"},{"rt":574,"response":" ","nodesOrdering":[120,94,87,188,228,110,249,251,215,289,248,192,265,16,293,144,214,231,92,119,281,277,186,35,128,258,118,104,195,266,1,164,46,62,226,256,238,224,7,131,222,194,123,207,217,216,95,65,219,244,40,77,56,292,34,50,180,68,80,278,165,296,55,263,227,161,52,185,64,197,74,111,22,210,15,241,25,61,84,86,213,76,2,126,291,151,162,280,18,240,72,85,287,45,225,253,290,295,275,172,149,91,38,176,135,19,174,60,100,28,82,98,54,182,202,33,138,153,179,14,299,250,189,158,145,157,230,47,108,58,239,203,24,211,113,233,205,90,21,198,288,53,245,294,41,284,4,133,66,255,67,199,112,268,273,129,43,221,156,122,171,136,184,220,12,232,175,107,269,204,274,257,286,191,196,150,218,155,124,36,209,201,26,127,10,101,75,71,142,206,254,121,17,173,102,59,134,30,285,51,137,37,13,261,259,187,236,237,154,140,29,177,200,264,57,235,260,48,271,79,103,163,11,97,9,167,8,298,99,267,6,3,283,178,89,212,272,109,193,23,168,69,152,132,116,276,83,242,70,27,5,0,39,183,169,96,243,252,146,105,63,159,130,181,44,81,270,229,42,20,117,31,223,148,247,115,78,282,139,190,88,125,246,160,170,147,143,49,234,297,114,208,93,32,141,279,73,166,106,262],"cliqueSize":200,"correctResponse":"arrowright","presentationNumber":0,"trial_type":"canvas-keyboard-response","trial_index":47,"time_elapsed":34681,"internal_node_id":"0.0-46.1-0.1-0.1"},{"rt":506,"response":" ","nodesOrdering":[59,87,289,283,54,257,242,148,151,16,70,188,142,120,101,86,194,100,150,201,91,294,245,115,78,50,136,106,190,43,141,88,99,28,95,160,21,296,139,1,200,162,67,271,155,191,221,96,60,68,193,111,25,231,40,206,209,152,299,273,147,199,98,64,243,229,286,182,170,146,187,230,192,252,298,167,69,143,248,215,189,213,116,227,81,180,124,57,225,184,284,266,4,92,38,177,83,121,174,104,24,244,6,108,35,12,175,103,281,287,5,58,20,270,282,33,247,17,222,48,71,212,158,178,73,149,42,53,216,264,9,202,233,45,261,79,265,107,164,290,198,135,163,256,130,27,234,197,22,260,80,153,157,166,47,90,293,288,268,169,165,291,205,263,218,255,204,210,232,122,0,65,134,185,75,23,56,49,14,118,272,63,279,8,76,208,7,203,97,186,176,123,297,94,214,30,61,237,238,144,137,125,236,276,84,72,129,55,82,2,77,15,89,173,159,183,127,179,207,269,46,195,105,224,3,211,275,126,133,39,74,51,138,239,93,131,171,259,250,241,262,52,292,253,223,277,114,117,19,240,37,36,10,254,132,31,168,113,228,34,11,110,217,13,62,226,267,128,249,109,172,274,278,85,102,26,246,219,112,235,66,280,258,220,161,156,145,41,154,18,32,251,119,285,295,181,29,44,196,140],"cliqueSize":200,"correctResponse":"arrowright","presentationNumber":0,"trial_type":"canvas-keyboard-response","trial_index":48,"time_elapsed":35307,"internal_node_id":"0.0-46.2-0.2-0.2"},{"rt":543,"response":"arrowright","nodesOrdering":[234,23,120,263,24,202,105,267,170,201,52,74,18,33,260,224,226,220,85,141,75,114,231,148,173,69,186,68,99,131,135,208,232,180,93,230,200,22,34,21,94,272,171,60,46,84,166,199,35,27,294,64,162,229,91,210,106,290,55,228,242,274,176,43,206,219,40,134,211,194,150,4,255,284,11,121,227,31,72,299,82,125,119,54,269,104,268,225,116,155,107,37,235,1,262,146,28,65,49,175,187,257,181,133,70,29,286,137,258,209,203,47,281,152,12,109,58,277,248,51,241,78,207,246,282,128,197,13,147,273,110,143,122,249,182,233,256,247,204,151,30,102,113,185,39,161,280,298,158,32,0,243,157,41,81,198,270,108,271,6,15,140,142,184,90,80,83,124,20,159,215,101,87,265,212,92,63,191,17,287,259,97,57,195,132,205,149,100,14,190,3,293,127,79,297,251,71,26,174,53,48,279,156,42,95,276,189,130,145,253,98,73,217,236,77,240,160,183,296,179,62,172,8,177,56,154,239,9,238,196,261,88,112,169,118,10,216,168,221,289,139,295,292,288,144,283,188,213,218,86,76,50,5,25,2,237,138,275,193,111,59,264,45,163,164,36,67,89,136,38,123,285,115,16,129,266,245,192,126,96,278,250,291,44,178,117,214,254,61,66,19,7,223,167,222,103,252,165,153,244],"cliqueSize":200,"correctResponse":"arrowright","correctnessOfResponse":true,"presentationNumber":0,"trial_type":"canvas-keyboard-response","trial_index":49,"time_elapsed":35968,"internal_node_id":"0.0-46.3-0.3-0.3"},{"rt":758,"response":"arrowright","nodesOrdering":[28,212,1,138,250,97,93,287,227,210,56,129,87,105,64,229,116,144,14,233,170,61,31,224,73,109,125,128,50,254,164,100,271,65,295,176,223,17,206,16,185,33,101,115,171,282,106,256,190,126,203,86,108,199,285,57,155,273,299,51,228,215,163,85,189,173,244,134,296,214,41,196,257,58,112,32,111,52,22,205,284,102,76,191,20,5,141,270,37,216,278,211,152,114,29,4,248,45,2,237,74,241,289,181,18,133,277,204,201,172,84,243,169,39,276,255,15,165,149,249,12,297,25,121,242,135,194,157,27,82,293,53,150,286,187,177,24,154,148,219,60,281,104,72,283,69,118,225,90,200,261,63,246,139,213,291,122,175,48,46,253,275,260,120,268,209,47,290,75,67,179,92,89,94,251,232,274,79,26,66,180,193,11,294,0,96,3,40,208,113,10,98,159,143,71,78,130,119,156,151,8,123,288,162,238,264,298,62,132,59,226,124,182,9,161,117,38,6,192,7,186,77,207,217,158,160,235,267,147,83,70,140,107,279,54,240,265,23,221,19,272,166,230,183,259,88,95,262,55,68,142,36,239,99,136,21,137,202,30,258,188,218,153,220,236,269,184,80,266,34,245,222,198,292,44,43,42,81,280,197,146,91,231,195,234,167,103,174,13,127,252,178,35,110,131,168,145,263,247,49],"cliqueSize":190,"correctResponse":"arrowright","correctnessOfResponse":true,"presentationNumber":1,"trial_type":"canvas-keyboard-response","trial_index":50,"time_elapsed":36844,"internal_node_id":"0.0-47.0-0.0-0.0"},{"rt":755,"response":"arrowright","nodesOrdering":[276,184,264,62,193,262,22,282,71,215,84,6,33,45,91,148,113,156,110,101,48,52,259,7,128,274,15,292,266,126,248,223,183,77,190,243,12,196,216,88,27,296,220,123,104,204,138,273,106,226,152,5,11,151,284,30,2,252,66,64,206,280,289,236,141,230,172,189,76,115,235,217,136,286,153,24,167,254,175,238,16,78,131,8,102,146,173,275,212,283,181,253,176,31,244,1,147,14,36,122,257,169,107,219,205,83,105,279,192,180,150,221,143,145,168,50,272,86,293,239,109,140,96,124,203,290,119,133,277,222,234,95,185,211,164,160,29,40,194,82,200,100,20,92,19,165,174,73,10,267,225,154,245,28,166,118,139,0,53,134,9,214,159,299,38,17,155,130,195,278,263,54,229,149,261,74,34,228,21,158,297,162,23,258,256,161,271,218,208,116,65,68,13,241,250,137,51,201,178,270,120,157,60,288,240,59,187,224,295,186,35,233,61,294,209,135,260,231,129,108,41,49,142,103,177,188,67,18,72,93,37,39,281,202,170,58,121,63,55,44,43,75,69,79,197,198,265,26,4,268,42,125,242,56,247,287,3,70,179,246,249,97,46,85,251,213,114,269,285,87,163,232,182,98,227,207,298,89,255,112,210,199,127,144,99,171,117,81,111,94,47,132,25,191,80,32,237,291,57,90],"cliqueSize":180,"correctResponse":"arrowright","correctnessOfResponse":true,"presentationNumber":2,"trial_type":"canvas-keyboard-response","trial_index":51,"time_elapsed":37727,"internal_node_id":"0.0-48.0-0.0-0.0"},{"rt":875,"response":"arrowright","nodesOrdering":[215,17,31,52,126,115,236,166,78,285,51,159,231,12,141,258,77,98,167,111,45,210,298,114,192,183,102,59,187,207,48,138,247,229,53,282,76,145,253,292,219,0,170,296,233,274,112,165,27,230,293,68,66,139,250,180,172,93,226,79,191,135,26,41,122,9,286,198,39,96,234,131,287,43,142,116,63,113,182,265,94,117,18,211,61,106,16,195,255,144,203,251,44,176,103,13,297,196,244,55,295,124,10,128,4,266,227,177,62,25,105,129,217,123,33,3,22,107,133,264,82,65,212,54,14,280,162,235,154,190,288,36,11,119,153,163,140,260,67,161,5,134,1,222,269,216,178,290,90,125,75,271,83,289,8,164,279,84,89,2,160,110,34,132,118,40,137,29,99,42,24,80,257,6,20,32,200,120,193,259,57,238,146,225,173,221,185,157,278,283,268,240,201,109,37,267,69,272,38,7,21,284,168,58,199,263,181,46,254,151,237,281,243,92,101,208,213,64,197,56,121,88,60,19,150,87,175,171,220,218,291,28,169,179,23,81,205,155,86,35,100,72,85,91,188,194,97,189,277,276,47,204,184,95,50,174,70,261,223,15,104,270,252,73,74,156,294,262,147,299,143,206,214,242,158,130,241,275,202,30,108,232,248,136,148,228,249,245,127,49,239,256,186,71,149,224,246,152,209,273],"cliqueSize":170,"correctResponse":"arrowright","correctnessOfResponse":true,"presentationNumber":3,"trial_type":"canvas-keyboard-response","trial_index":52,"time_elapsed":38723,"internal_node_id":"0.0-49.0-0.0-0.0"},{"rt":778,"response":"arrowright","nodesOrdering":[294,133,219,215,114,120,261,269,66,292,220,264,145,263,180,191,223,209,76,81,210,12,44,154,62,115,258,298,161,54,78,56,198,55,112,130,21,31,241,75,169,89,166,284,199,148,57,97,147,289,250,195,111,252,221,182,152,116,283,87,36,227,228,16,10,24,25,179,208,67,103,194,259,255,4,14,117,173,249,218,162,239,69,230,118,37,77,46,19,47,231,7,251,82,68,18,13,260,232,49,2,262,98,266,26,27,88,151,238,80,86,74,99,187,247,168,290,105,129,140,203,85,205,41,276,240,181,100,288,42,293,22,196,65,273,23,73,150,270,176,53,206,279,30,193,202,20,1,222,160,94,296,211,245,123,71,149,282,184,244,50,137,172,207,243,11,60,216,84,0,280,268,131,39,28,213,136,226,63,253,126,236,17,127,158,61,212,79,175,183,157,101,286,200,35,104,214,93,64,174,254,106,165,299,121,83,248,164,233,48,110,224,135,144,138,229,33,43,29,72,8,295,15,146,186,96,107,267,178,171,143,134,185,204,287,6,9,40,163,125,139,242,155,132,190,90,45,153,58,5,217,122,281,177,277,167,275,192,32,170,156,285,235,128,142,297,102,119,257,92,272,3,274,108,234,189,256,124,51,91,141,237,201,197,59,265,38,188,52,34,291,278,159,246,109,271,225,70,113,95],"cliqueSize":160,"correctResponse":"arrowright","correctnessOfResponse":true,"presentationNumber":4,"trial_type":"canvas-keyboard-response","trial_index":53,"time_elapsed":39625,"internal_node_id":"0.0-50.0-0.0-0.0"},{"rt":842,"response":"arrowleft","nodesOrdering":[252,24,70,239,21,245,50,208,179,20,206,58,259,7,61,181,260,41,229,163,59,102,271,145,278,146,81,161,133,27,159,108,162,268,167,75,135,231,34,223,209,286,233,294,35,117,218,290,68,10,187,251,258,15,184,203,62,189,60,112,152,74,196,93,241,84,158,49,101,149,76,99,266,186,18,287,131,29,253,297,197,116,30,56,173,172,249,80,111,219,198,3,182,113,276,282,38,288,104,98,123,148,169,95,200,275,165,57,12,183,177,73,130,267,269,23,119,16,137,78,36,9,19,67,185,138,236,0,263,211,232,215,132,71,14,175,6,176,42,194,157,13,52,45,192,225,234,47,89,202,129,122,65,127,79,31,110,11,91,257,97,147,118,227,170,295,261,114,2,214,83,124,28,72,205,224,53,142,226,88,293,199,180,54,273,26,151,246,213,154,255,90,105,212,46,193,141,39,243,274,250,115,51,220,136,150,291,48,153,265,17,235,264,283,121,8,1,33,171,210,230,178,66,155,107,96,37,285,103,296,40,298,43,5,143,92,86,248,277,279,106,126,128,164,188,289,77,222,240,256,85,32,217,237,280,166,247,201,190,63,94,281,109,160,207,244,55,69,228,191,25,292,254,134,174,284,140,262,120,125,221,299,100,44,156,139,242,64,216,87,238,270,4,22,272,195,204,168,82,144],"cliqueSize":150,"correctResponse":"arrowleft","correctnessOfResponse":true,"presentationNumber":5,"trial_type":"canvas-keyboard-response","trial_index":54,"time_elapsed":40594,"internal_node_id":"0.0-51.0-0.0-0.0"},{"rt":891,"response":"arrowleft","nodesOrdering":[202,203,26,172,124,3,280,188,168,196,273,201,22,1,215,129,176,222,32,220,258,98,227,278,167,36,178,245,8,131,214,165,262,82,91,43,274,83,154,121,138,266,288,169,86,35,136,67,297,109,12,72,25,66,211,209,225,90,239,251,289,119,182,185,246,95,110,33,180,56,81,49,242,10,120,87,51,216,103,160,152,286,198,226,31,5,210,75,130,2,105,127,39,291,70,7,233,41,170,94,135,92,153,63,259,146,223,15,145,69,195,271,38,142,59,228,281,179,65,104,53,272,252,68,295,277,151,61,159,221,173,199,71,219,236,93,102,115,275,244,111,218,248,290,156,140,123,238,164,42,100,97,193,283,122,137,177,254,108,54,194,88,204,78,62,143,4,17,189,166,249,85,150,77,117,267,256,24,206,269,200,250,73,261,191,237,243,212,247,224,21,282,148,162,141,118,183,76,298,285,79,149,28,232,139,133,207,187,230,260,74,240,265,208,19,101,163,47,16,186,292,106,161,184,99,147,48,276,255,6,84,181,40,128,89,234,174,60,190,14,107,231,264,116,175,134,125,299,144,279,205,157,294,55,52,64,112,13,270,0,58,257,293,155,9,213,37,96,34,80,229,27,113,44,197,132,114,29,241,287,45,50,158,253,46,268,171,23,57,263,296,235,11,284,18,30,192,126,217,20],"cliqueSize":140,"correctResponse":"arrowleft","correctnessOfResponse":true,"presentationNumber":6,"trial_type":"canvas-keyboard-response","trial_index":55,"time_elapsed":41610,"internal_node_id":"0.0-52.0-0.0-0.0"},{"rt":812,"response":"arrowright","nodesOrdering":[28,175,164,30,208,114,196,268,211,58,36,239,221,266,269,245,123,184,47,176,25,225,224,277,190,227,100,256,189,213,115,265,50,238,163,106,110,1,61,52,104,91,140,209,138,255,2,64,135,281,98,276,167,233,260,82,49,34,59,200,76,218,132,116,95,297,288,85,127,134,83,182,92,4,168,216,24,128,120,153,40,8,223,282,81,18,33,261,133,207,229,26,102,267,148,78,188,186,210,9,96,12,194,280,41,199,75,157,162,22,271,113,234,183,251,5,171,109,293,237,160,55,62,11,181,80,141,112,287,270,131,278,289,126,222,77,226,74,240,125,169,299,16,87,67,105,23,178,38,139,117,72,263,296,264,242,235,94,70,202,166,89,198,0,88,298,35,124,165,3,60,84,73,279,252,19,155,45,43,143,283,10,108,236,7,48,144,86,248,31,219,203,142,119,111,220,180,193,122,259,63,177,159,147,46,204,250,53,172,118,185,230,275,161,13,201,57,254,66,294,206,262,145,274,244,158,192,273,79,214,44,90,292,14,257,249,32,130,17,97,231,152,291,56,253,290,27,39,205,93,217,20,121,295,68,150,191,71,215,174,151,146,69,107,228,154,247,129,54,258,103,6,197,15,285,187,179,212,173,284,99,246,243,149,51,272,232,195,21,156,241,101,42,37,137,170,286,29,136,65],"cliqueSize":130,"correctResponse":"arrowright","correctnessOfResponse":true,"presentationNumber":7,"trial_type":"canvas-keyboard-response","trial_index":56,"time_elapsed":42536,"internal_node_id":"0.0-53.0-0.0-0.0"},{"rt":772,"response":"arrowright","nodesOrdering":[248,254,180,103,133,2,237,251,72,91,102,122,35,155,175,296,152,56,84,119,131,47,288,93,261,187,21,165,62,146,50,107,150,95,116,46,272,17,98,109,15,159,289,266,246,134,129,9,145,189,63,106,112,269,263,54,64,27,294,166,209,42,291,48,16,58,185,49,249,292,220,115,30,57,278,285,24,130,179,154,36,141,264,234,143,161,198,39,230,172,18,217,177,238,137,265,52,100,68,270,44,123,281,171,88,66,4,26,113,295,242,229,105,45,244,260,87,80,7,101,29,276,127,174,190,43,210,12,256,144,78,226,267,83,277,228,32,194,60,224,170,167,104,147,0,148,236,38,299,96,5,207,245,34,275,157,259,120,211,255,23,77,71,183,55,216,3,40,79,258,219,124,213,151,274,280,169,99,114,214,181,135,149,284,241,117,164,33,227,142,41,193,282,200,233,118,239,268,205,125,92,176,86,139,253,22,160,11,203,14,158,82,28,51,65,73,225,235,126,197,232,1,191,31,162,262,37,297,273,221,257,90,138,222,199,121,108,53,19,136,110,61,208,163,111,298,195,196,156,25,81,204,218,212,6,85,250,293,140,271,283,215,186,153,290,188,279,69,20,8,206,201,182,10,286,184,173,13,240,76,70,128,231,74,252,132,89,247,94,223,168,67,75,59,192,178,97,202,243,287],"cliqueSize":120,"correctResponse":"arrowright","correctnessOfResponse":true,"presentationNumber":8,"trial_type":"canvas-keyboard-response","trial_index":57,"time_elapsed":43431,"internal_node_id":"0.0-54.0-0.0-0.0"},{"rt":975,"response":"arrowleft","nodesOrdering":[30,106,14,97,179,287,149,47,13,206,278,150,218,53,42,227,64,288,247,204,92,272,74,293,126,279,108,16,41,225,216,252,251,91,191,282,170,275,82,107,8,100,5,289,63,157,155,135,119,128,93,295,185,235,152,168,243,250,80,217,32,198,231,270,261,35,268,273,291,123,132,213,144,259,145,72,39,194,253,184,292,40,238,240,48,290,127,142,249,27,84,219,134,246,59,166,189,95,78,113,266,38,167,104,67,62,44,36,175,284,116,90,209,28,112,188,161,79,131,54,52,45,31,140,129,171,0,75,151,77,215,222,211,164,230,20,65,46,76,237,68,299,50,195,190,70,245,139,199,4,244,274,200,49,229,143,69,103,187,120,233,294,236,51,192,56,255,221,178,125,118,2,85,201,260,172,43,241,10,176,163,148,83,101,196,214,256,19,212,87,133,61,263,180,158,86,33,174,124,7,153,141,257,136,154,55,283,197,298,73,186,71,156,220,202,102,285,26,258,34,12,138,265,177,117,110,271,223,96,58,24,147,280,29,114,88,15,183,173,160,81,9,105,208,205,115,239,66,1,248,193,21,89,296,181,276,207,98,57,121,23,99,242,277,281,6,137,226,109,182,25,286,162,111,254,228,159,146,169,264,203,224,130,17,297,11,3,18,122,94,262,60,234,165,269,37,22,232,267,210],"cliqueSize":110,"correctResponse":"arrowleft","correctnessOfResponse":true,"presentationNumber":9,"trial_type":"canvas-keyboard-response","trial_index":58,"time_elapsed":44548,"internal_node_id":"0.0-55.0-0.0-0.0"},{"rt":887,"response":"arrowleft","nodesOrdering":[256,220,10,171,279,163,237,124,250,77,229,19,168,36,18,42,3,174,6,218,55,269,232,121,278,60,164,281,46,100,285,114,207,51,45,143,187,73,142,262,83,298,54,120,131,190,134,101,213,52,195,24,211,49,166,234,203,84,299,180,291,139,277,274,17,88,221,58,196,2,96,11,191,162,7,14,158,136,181,182,280,20,27,141,236,287,126,178,0,122,21,297,118,264,71,76,78,5,210,249,35,243,294,16,152,189,183,222,66,293,228,245,40,224,253,154,97,113,167,89,286,50,127,128,239,140,226,235,15,260,276,208,92,47,90,103,30,29,67,148,86,283,150,223,68,275,133,95,59,282,75,129,13,251,23,161,111,265,159,25,63,108,194,33,216,198,65,99,1,244,34,26,147,116,91,176,185,233,151,288,230,28,271,130,193,31,184,165,72,39,214,85,87,8,258,64,155,135,254,172,12,56,290,225,266,242,9,62,192,144,255,132,197,69,188,209,79,296,270,41,112,104,57,252,238,145,261,289,98,284,146,37,263,247,205,267,272,81,170,109,48,217,156,246,138,268,38,273,227,295,61,248,4,149,106,94,200,177,173,80,22,93,117,199,32,82,160,292,123,231,70,204,119,241,74,44,157,125,115,102,212,53,219,215,107,153,240,105,186,202,179,169,110,43,206,137,257,259,201,175],"cliqueSize":100,"correctResponse":"arrowleft","correctnessOfResponse":true,"presentationNumber":10,"trial_type":"canvas-keyboard-response","trial_index":59,"time_elapsed":45550,"internal_node_id":"0.0-56.0-0.0-0.0"},{"rt":538,"response":" ","nodesOrdering":[84,50,55,7,128,150,69,165,105,145,220,83,275,117,12,217,256,279,283,240,243,207,284,252,4,127,104,289,35,97,278,171,197,80,16,0,159,160,137,158,85,138,101,147,255,76,183,53,236,89,157,163,87,281,223,192,257,22,296,136,78,191,120,161,36,13,269,49,100,262,182,20,68,185,90,64,103,226,146,290,292,106,218,51,280,19,219,205,32,25,237,57,18,293,14,276,241,48,261,88,79,234,291,254,60,31,288,45,133,211,227,193,232,295,130,212,230,154,155,265,168,214,42,91,94,28,287,27,294,61,113,201,115,110,65,152,116,52,186,37,59,195,118,164,10,286,175,203,233,221,17,148,204,184,274,66,210,126,238,180,169,86,9,74,231,170,266,235,95,187,263,75,70,143,56,142,131,271,125,162,24,46,196,229,26,96,3,247,38,228,112,299,92,250,77,270,245,173,39,156,181,123,178,111,206,272,253,166,134,99,246,215,282,135,248,140,264,30,244,121,268,151,108,72,47,239,54,102,5,71,188,43,177,167,174,141,149,41,124,122,2,67,194,199,222,277,73,213,285,1,40,259,33,172,62,153,297,224,225,58,29,114,190,8,144,119,63,15,189,34,249,93,251,202,267,200,273,81,21,216,23,208,109,107,11,132,198,298,82,129,44,139,258,260,6,179,98,209,242,176],"cliqueSize":90,"correctResponse":"arrowright","presentationNumber":11,"trial_type":"canvas-keyboard-response","trial_index":60,"time_elapsed":46213,"internal_node_id":"0.0-57.0-0.0-0.0"},{"rt":689,"response":"arrowright","nodesOrdering":[196,138,157,193,108,255,130,243,282,40,95,76,81,82,183,251,189,37,156,9,237,257,31,186,65,61,299,252,185,207,247,192,270,261,276,78,125,151,245,47,298,240,14,87,258,184,99,265,112,104,33,224,32,234,214,69,271,266,20,152,268,295,210,101,161,264,223,102,277,67,98,280,139,120,229,15,176,8,231,39,54,155,283,71,142,1,175,25,180,88,46,262,4,6,286,148,166,221,274,34,297,49,128,211,123,119,201,52,114,285,106,59,147,198,238,219,253,133,12,288,48,236,279,63,182,109,239,190,80,22,66,23,103,191,10,141,2,56,289,124,146,291,26,213,217,178,248,43,269,242,165,275,249,100,11,135,74,113,296,227,134,172,174,129,60,232,181,38,89,194,140,13,287,85,79,5,132,16,284,267,36,292,199,29,64,53,35,136,41,209,94,205,212,111,170,0,55,75,18,179,93,281,187,107,162,27,195,226,127,77,126,51,58,160,171,68,115,118,121,57,250,3,149,163,150,105,24,293,220,137,290,72,228,215,169,122,263,90,259,254,225,96,294,206,143,222,246,244,218,117,84,208,17,92,70,177,197,273,83,159,204,110,91,19,168,158,86,260,50,241,164,62,278,7,202,203,45,145,97,30,28,188,233,153,21,216,73,154,167,131,235,230,44,272,42,116,173,200,144,256],"cliqueSize":90,"correctResponse":"arrowright","correctnessOfResponse":true,"presentationNumber":11,"trial_type":"canvas-keyboard-response","trial_index":61,"time_elapsed":47032,"internal_node_id":"0.0-57.1-0.1-0.1"},{"rt":570,"response":" ","nodesOrdering":[104,242,82,150,129,109,267,290,181,175,211,69,165,296,24,184,198,39,210,22,45,246,118,46,81,192,231,5,194,79,140,16,112,201,30,64,196,206,250,291,292,131,19,100,137,259,80,279,86,264,289,35,225,170,202,54,158,78,17,151,244,105,127,47,93,67,7,83,75,190,293,182,128,237,66,62,297,106,248,224,65,76,103,99,101,98,0,252,295,172,284,57,168,230,162,147,113,32,281,273,171,288,217,12,41,254,204,18,155,53,15,13,55,107,276,251,27,133,4,268,68,34,94,132,255,183,115,121,157,263,283,222,71,9,33,36,238,117,74,40,96,218,239,219,102,232,161,275,236,1,193,178,59,285,253,160,70,145,164,163,97,262,31,29,280,130,212,286,216,72,233,234,56,42,139,213,167,209,87,143,229,258,282,226,136,91,203,21,120,173,186,228,247,269,199,144,298,44,2,114,256,223,270,141,154,266,241,43,60,208,110,111,138,245,177,152,116,146,49,271,287,95,73,38,125,134,88,148,235,14,249,28,122,77,278,119,92,294,195,51,240,265,169,11,124,180,214,25,257,52,159,90,149,174,191,207,6,89,3,37,153,188,299,123,126,20,189,85,8,243,200,277,221,215,50,179,108,142,260,10,63,187,61,26,84,185,220,156,274,23,176,261,227,205,272,135,48,197,166,58],"cliqueSize":80,"correctResponse":"arrowleft","presentationNumber":12,"trial_type":"canvas-keyboard-response","trial_index":62,"time_elapsed":47728,"internal_node_id":"0.0-58.0-0.0-0.0"},{"rt":606,"response":" ","nodesOrdering":[113,25,207,8,190,142,242,103,238,293,119,236,64,189,11,274,220,174,296,23,149,286,51,26,280,187,152,60,186,205,160,148,163,34,198,243,153,6,147,231,167,114,7,88,139,249,46,278,62,170,281,24,169,15,276,252,209,221,200,2,110,162,251,86,49,213,10,235,74,112,175,81,212,218,287,43,68,61,77,128,38,182,28,118,266,225,73,292,210,111,173,216,229,48,219,269,158,33,70,140,290,85,30,136,171,92,204,124,215,17,299,123,71,143,126,105,96,289,135,97,84,184,121,58,44,21,101,87,50,94,206,159,39,258,228,27,271,133,259,109,277,255,180,137,52,146,120,89,40,291,294,297,188,217,179,240,57,155,177,13,156,3,230,53,125,154,14,239,138,241,295,176,248,244,196,224,185,245,208,168,246,12,75,35,268,161,115,226,106,108,18,265,164,59,254,199,76,55,0,31,69,99,72,80,131,127,29,122,66,144,102,117,234,82,298,151,130,20,129,67,272,260,37,56,107,211,90,104,285,4,47,203,288,157,232,256,284,63,93,261,9,91,197,270,223,191,141,19,100,36,1,233,253,65,54,5,150,178,172,181,227,165,193,78,194,247,95,262,202,134,16,283,195,267,264,192,22,250,273,116,282,132,145,214,166,279,183,257,41,45,42,275,79,237,83,222,32,98,201,263],"cliqueSize":80,"correctResponse":"arrowleft","presentationNumber":12,"trial_type":"canvas-keyboard-response","trial_index":63,"time_elapsed":48460,"internal_node_id":"0.0-58.1-0.1-0.1"},{"rt":610,"response":"arrowleft","nodesOrdering":[38,137,25,200,127,157,120,43,14,184,192,178,231,244,186,101,46,0,292,169,90,268,118,259,210,33,32,49,34,64,254,154,84,117,50,235,263,139,207,124,107,37,9,40,260,31,82,170,232,165,59,68,91,291,216,195,3,274,241,205,156,60,52,44,167,131,293,150,76,253,11,21,39,8,208,42,77,211,173,275,110,281,264,1,286,267,287,193,166,230,93,203,116,204,233,58,160,41,98,22,296,6,277,237,122,18,53,248,218,228,134,206,144,196,226,126,240,251,269,57,72,148,181,100,220,56,75,106,35,125,257,243,162,189,16,80,5,222,2,199,79,294,270,152,279,92,236,105,266,256,20,81,119,164,285,89,129,17,171,61,250,161,87,172,180,297,198,136,103,123,67,214,201,23,55,147,182,10,242,155,163,151,229,177,86,187,252,83,239,175,158,247,246,27,188,276,283,153,88,15,70,62,224,45,298,225,24,221,47,65,149,140,96,54,99,13,290,179,185,133,238,142,12,272,213,19,130,282,115,95,146,265,194,69,288,202,109,135,255,29,97,227,112,295,159,132,197,168,191,145,71,73,94,141,66,223,74,128,280,78,258,104,278,4,212,217,299,143,271,219,174,30,48,51,209,234,284,102,85,121,190,7,63,215,36,245,111,261,273,289,262,138,28,249,114,108,176,26,183,113],"cliqueSize":80,"correctResponse":"arrowleft","correctnessOfResponse":true,"presentationNumber":12,"trial_type":"canvas-keyboard-response","trial_index":64,"time_elapsed":49205,"internal_node_id":"0.0-58.2-0.2-0.2"},{"rt":571,"response":" ","nodesOrdering":[247,50,174,40,215,232,226,12,197,298,121,104,13,19,30,275,228,0,9,199,82,162,251,29,91,260,238,240,5,259,248,33,151,126,241,52,99,205,49,152,239,245,235,200,86,231,237,145,45,16,81,54,60,257,128,130,31,150,62,119,108,84,78,156,223,109,89,285,210,83,218,87,252,51,170,97,217,63,116,133,236,93,295,253,179,96,95,202,227,57,183,56,222,90,169,79,221,242,286,107,14,271,281,292,219,167,66,263,65,17,187,146,24,39,254,75,158,193,18,184,7,277,208,293,131,46,155,28,186,172,74,144,20,244,105,153,72,117,147,48,233,164,3,115,125,243,69,201,283,182,214,139,178,262,211,297,64,264,148,106,229,37,290,149,59,157,15,284,88,175,206,1,42,111,266,22,289,92,142,166,6,27,176,21,25,137,276,273,10,98,2,225,70,180,299,256,165,43,246,282,185,234,135,61,294,113,159,23,44,204,123,102,41,265,274,296,161,190,258,177,195,136,110,198,140,191,168,120,269,122,73,112,230,141,124,173,103,4,268,114,171,280,85,207,55,250,11,278,270,67,47,58,118,213,224,71,127,220,194,212,100,154,279,291,261,8,196,101,53,36,35,287,160,143,38,255,129,288,272,209,26,76,94,132,203,138,188,181,267,163,249,77,32,192,189,68,80,34,216,134],"cliqueSize":70,"correctResponse":"arrowleft","presentationNumber":13,"trial_type":"canvas-keyboard-response","trial_index":65,"time_elapsed":49895,"internal_node_id":"0.0-59.0-0.0-0.0"},{"rt":605,"response":" ","nodesOrdering":[28,148,231,102,217,173,85,165,57,243,203,19,272,96,131,75,59,281,6,204,97,132,141,15,5,202,177,27,192,70,267,206,74,233,167,258,255,60,118,103,54,200,145,178,149,140,253,176,247,127,261,188,290,154,153,93,235,130,72,242,210,159,284,185,43,293,152,109,273,119,50,34,291,46,99,201,278,77,183,22,81,232,240,122,264,292,56,123,198,288,7,151,101,52,62,40,114,32,238,163,48,124,73,17,194,117,88,41,51,144,150,1,181,95,252,227,221,277,23,29,14,76,35,0,256,266,83,39,160,18,175,208,276,286,129,82,269,237,116,168,63,209,219,91,182,55,90,225,214,170,220,236,25,229,20,162,271,42,9,184,212,297,189,187,289,21,147,205,262,224,172,71,67,79,137,298,84,218,270,104,228,196,275,265,49,257,283,285,58,155,44,174,36,213,142,234,294,230,121,47,128,78,66,161,11,191,80,164,179,133,244,87,136,296,215,239,166,216,299,295,111,65,222,259,108,190,274,186,139,282,113,138,211,12,86,4,105,199,98,157,112,13,193,24,169,53,260,61,37,125,245,156,226,146,45,254,171,115,143,223,263,89,120,246,16,30,31,134,135,10,106,287,8,195,3,241,92,100,69,197,251,126,207,250,279,68,280,38,94,2,248,33,110,64,268,26,158,107,180,249],"cliqueSize":70,"correctResponse":"arrowleft","presentationNumber":13,"trial_type":"canvas-keyboard-response","trial_index":66,"time_elapsed":50623,"internal_node_id":"0.0-59.1-0.1-0.1"},{"rt":594,"response":" ","nodesOrdering":[5,188,261,263,86,238,246,262,116,247,186,275,288,56,271,210,68,162,253,70,274,59,283,299,50,153,69,136,106,12,252,88,189,104,143,281,140,37,245,73,137,35,209,292,293,225,145,53,195,62,182,60,155,159,131,21,268,202,297,229,199,273,84,113,125,269,222,77,240,193,87,15,85,103,266,99,294,3,17,278,244,183,100,27,121,163,260,64,158,230,179,192,55,39,82,181,168,1,218,16,47,19,248,198,233,127,18,67,276,126,231,272,175,58,78,33,61,165,97,161,152,277,134,108,135,172,7,45,66,291,200,151,44,242,6,267,203,217,170,239,205,280,259,265,22,117,258,173,176,95,80,130,11,114,148,129,75,138,139,279,128,284,255,105,228,220,98,2,174,171,154,160,254,243,141,232,191,94,0,92,31,52,115,270,166,296,120,201,144,237,57,90,250,13,48,214,26,282,102,71,119,65,79,197,223,169,264,122,180,167,63,89,156,211,146,74,236,150,38,91,208,213,101,215,142,123,24,196,157,207,93,226,40,184,190,72,224,43,107,42,295,32,227,30,290,178,34,124,235,241,20,41,212,49,46,96,118,221,251,29,36,110,133,216,298,285,83,194,4,204,14,164,25,219,286,187,149,112,257,81,8,289,111,9,10,23,185,109,51,76,256,206,54,177,132,249,234,28,287,147],"cliqueSize":70,"correctResponse":"arrowleft","presentationNumber":13,"trial_type":"canvas-keyboard-response","trial_index":67,"time_elapsed":51348,"internal_node_id":"0.0-59.2-0.2-0.2"},{"rt":1088,"response":"arrowleft","nodesOrdering":[43,153,69,269,256,188,285,26,196,278,268,272,2,283,170,12,62,18,124,288,200,115,189,164,257,138,132,90,154,157,79,10,129,8,258,205,162,108,72,121,289,95,100,104,293,17,1,181,74,167,71,158,41,31,238,78,145,105,241,67,223,222,210,126,282,286,135,275,27,155,148,260,101,32,214,160,54,114,187,180,36,248,228,123,165,37,168,211,44,179,177,215,250,68,99,52,174,38,130,15,240,225,245,202,58,106,213,122,86,22,152,89,53,137,242,87,57,294,281,21,280,70,253,93,51,239,191,42,48,297,109,0,13,33,24,144,97,273,290,201,116,92,59,263,186,28,194,110,49,143,112,85,56,279,60,16,176,298,120,217,231,128,235,142,166,113,63,299,55,277,103,84,296,206,161,34,88,287,50,80,209,172,270,9,29,134,40,81,265,171,83,25,141,96,221,236,118,224,255,159,229,64,208,102,76,212,178,45,271,14,207,276,73,35,291,65,163,94,230,234,139,182,125,23,6,175,254,262,261,149,203,264,4,151,11,237,46,91,199,243,274,227,226,220,198,147,30,136,173,107,244,295,192,259,233,127,156,77,133,218,82,249,246,117,20,195,61,184,251,5,111,169,267,75,66,131,140,185,7,119,183,292,193,19,204,150,232,247,252,216,197,219,39,47,190,284,146,3,98,266],"cliqueSize":70,"correctResponse":"arrowleft","correctnessOfResponse":true,"presentationNumber":13,"trial_type":"canvas-keyboard-response","trial_index":68,"time_elapsed":52552,"internal_node_id":"0.0-59.3-0.3-0.3"},{"rt":704,"response":" ","nodesOrdering":[27,248,141,115,72,223,188,99,108,294,103,205,104,131,286,76,48,268,173,206,100,83,2,138,74,53,218,226,61,124,63,266,267,236,277,151,297,152,62,36,293,39,130,149,84,35,65,121,244,98,40,273,259,66,166,147,6,144,168,292,207,295,240,79,118,201,157,156,18,182,260,263,245,179,126,241,41,90,161,190,146,88,198,95,264,195,230,97,8,246,34,59,189,96,222,33,55,49,23,10,75,31,180,211,85,133,280,22,125,269,261,287,58,256,77,87,171,252,71,119,158,43,210,45,191,237,290,186,232,37,112,216,234,150,155,28,26,109,136,89,139,47,69,178,184,183,70,217,265,204,262,288,78,172,19,16,233,140,193,4,50,279,93,17,160,176,229,107,285,215,208,3,270,30,202,46,1,275,213,148,235,132,197,32,164,57,67,199,113,14,249,175,134,81,165,52,154,220,167,194,258,169,224,253,174,282,239,289,278,143,106,129,228,11,192,135,9,276,181,60,187,20,274,42,25,163,15,128,281,68,219,24,153,80,159,170,13,122,5,54,185,283,102,247,111,73,257,38,127,291,298,82,142,221,225,251,51,272,177,92,7,271,254,214,56,91,94,209,64,12,203,21,296,145,162,212,114,242,196,116,200,120,238,105,117,101,231,137,299,29,86,255,250,110,0,284,243,227,44,123],"cliqueSize":60,"correctResponse":"arrowleft","presentationNumber":14,"trial_type":"canvas-keyboard-response","trial_index":69,"time_elapsed":53401,"internal_node_id":"0.0-60.0-0.0-0.0"},{"rt":581,"response":" ","nodesOrdering":[79,229,0,202,212,68,87,105,248,265,264,118,106,150,69,88,244,49,278,220,103,94,10,95,83,53,4,163,111,147,35,154,240,237,250,231,64,71,290,31,112,275,61,283,177,179,115,120,44,59,30,167,215,65,104,225,29,74,199,127,113,23,72,146,14,257,219,11,50,121,174,52,84,261,42,288,21,171,36,189,100,183,19,222,210,247,158,213,139,234,48,273,268,142,148,196,47,285,89,101,294,262,152,293,201,27,235,159,128,182,90,97,1,176,91,218,144,81,157,5,236,270,41,75,209,77,232,170,130,263,292,143,124,20,289,123,3,269,298,295,252,39,198,145,9,110,18,245,55,255,62,204,93,259,114,246,151,134,78,33,223,256,184,135,211,284,98,254,86,51,17,96,217,286,16,205,166,281,208,76,73,46,162,203,277,287,233,192,271,153,137,129,141,138,85,99,216,82,92,8,251,156,107,160,266,28,25,221,227,238,258,149,60,63,195,80,38,43,168,274,180,297,260,280,40,226,291,126,117,282,56,22,206,6,133,185,181,249,224,207,58,119,175,32,242,37,241,187,132,70,299,214,161,26,172,34,243,66,2,296,109,15,188,136,165,190,169,24,13,164,116,228,253,108,279,272,155,200,131,102,54,191,57,173,125,194,140,193,12,122,186,67,178,197,230,276,239,267,45,7],"cliqueSize":60,"correctResponse":"arrowleft","presentationNumber":14,"trial_type":"canvas-keyboard-response","trial_index":70,"time_elapsed":54108,"internal_node_id":"0.0-60.1-0.1-0.1"},{"rt":755,"response":" ","nodesOrdering":[242,133,243,234,227,20,121,30,232,16,18,8,252,246,104,262,110,77,71,208,98,126,229,176,79,78,144,189,230,179,251,109,70,241,9,275,213,124,195,123,180,38,65,100,29,220,27,154,1,132,165,214,298,69,25,116,203,238,137,72,153,115,85,239,28,270,3,274,184,285,66,228,253,50,287,235,119,7,269,23,277,198,146,282,261,43,160,47,215,48,188,97,201,260,51,12,157,170,60,105,216,93,178,259,284,206,55,240,183,68,266,41,128,281,273,182,57,249,145,138,39,42,89,207,169,244,21,191,73,87,5,86,149,15,181,58,107,33,99,278,158,136,49,14,218,280,0,164,31,96,37,63,92,233,32,151,64,177,112,295,293,90,289,268,226,53,250,91,299,36,202,46,11,113,271,10,288,127,231,196,80,148,19,167,248,294,117,88,81,210,225,166,111,272,283,205,217,34,187,204,237,193,219,76,223,130,54,265,211,101,150,245,264,40,141,247,59,114,17,155,52,291,125,134,156,103,152,35,139,236,67,120,222,255,102,83,292,212,190,24,56,175,263,257,26,290,256,122,143,171,168,254,75,22,2,131,95,142,147,6,199,192,74,45,4,279,267,296,108,163,258,297,106,159,61,197,82,174,173,161,172,84,129,194,276,44,135,200,140,62,118,13,94,185,186,221,286,224,162,209],"cliqueSize":60,"correctResponse":"arrowleft","presentationNumber":14,"trial_type":"canvas-keyboard-response","trial_index":71,"time_elapsed":54992,"internal_node_id":"0.0-60.2-0.2-0.2"},{"rt":719,"response":" ","nodesOrdering":[286,221,156,163,30,291,121,150,52,188,45,249,16,139,219,55,4,247,131,283,48,147,211,35,102,242,80,164,145,299,225,284,194,206,62,186,15,218,244,111,50,185,90,9,266,18,295,240,98,95,6,84,288,116,235,36,148,277,175,28,264,245,34,133,138,110,280,24,215,205,44,135,25,161,222,195,184,27,208,29,3,79,10,170,5,23,87,220,198,86,193,259,92,85,70,209,290,100,227,201,137,254,262,41,26,64,233,132,217,226,32,109,183,267,144,112,0,43,1,298,65,287,67,294,232,40,69,165,250,97,14,255,8,91,93,238,141,88,189,282,174,7,136,152,89,177,234,22,17,275,168,228,11,187,149,63,155,172,261,246,191,99,74,279,101,108,285,173,258,158,157,57,210,49,42,151,134,251,146,118,171,20,76,119,106,13,271,126,72,75,142,117,212,81,94,203,263,252,54,59,241,83,159,96,31,51,120,169,123,105,125,270,223,47,153,124,202,68,178,272,179,237,293,199,230,297,60,176,231,224,127,213,281,39,192,182,289,216,214,197,274,53,130,292,71,21,82,243,58,190,260,38,276,114,140,107,269,166,296,77,37,181,33,248,56,257,66,154,78,239,12,200,103,2,122,128,160,162,196,236,253,115,73,129,61,113,268,167,46,143,180,265,256,207,19,229,104,204,273,278],"cliqueSize":60,"correctResponse":"arrowleft","presentationNumber":14,"trial_type":"canvas-keyboard-response","trial_index":72,"time_elapsed":55871,"internal_node_id":"0.0-60.3-0.3-0.3"},{"rt":635,"response":" ","nodesOrdering":[223,222,55,276,278,259,203,229,70,17,2,115,241,98,225,129,154,86,221,113,13,184,236,32,182,226,181,231,79,42,198,207,134,67,90,110,247,18,26,89,177,232,224,131,104,27,216,14,31,36,284,107,23,75,51,246,49,65,88,215,179,53,235,146,187,268,61,274,175,270,103,218,238,19,269,60,29,0,263,260,170,180,205,214,213,297,266,292,69,164,40,282,9,255,35,123,275,114,45,262,44,253,25,209,78,52,285,193,281,39,37,153,294,126,197,142,74,199,140,196,50,57,87,174,106,296,211,144,200,47,189,258,166,21,283,5,71,145,264,150,99,97,151,167,138,194,76,73,168,171,288,162,58,117,256,265,83,72,206,137,77,172,143,287,93,6,118,132,80,33,192,105,204,41,212,233,202,152,158,54,289,84,165,234,1,257,16,161,149,64,28,116,183,295,163,102,82,59,159,208,249,169,290,10,81,279,135,190,130,248,4,92,127,24,191,148,109,298,273,252,195,7,188,261,8,124,251,121,46,122,30,141,267,157,244,277,185,136,125,243,237,62,63,242,240,280,176,210,160,68,22,3,220,128,56,20,120,254,95,155,119,217,286,239,111,272,96,43,293,48,38,91,139,12,66,299,133,147,173,219,186,201,291,34,227,271,85,112,228,245,230,94,15,11,250,101,108,100,156,178],"cliqueSize":60,"correctResponse":"arrowleft","presentationNumber":14,"trial_type":"canvas-keyboard-response","trial_index":73,"time_elapsed":56632,"internal_node_id":"0.0-60.4-0.4-0.4"},{"rt":1607,"response":"arrowleft","nodesOrdering":[254,114,257,290,27,8,31,18,100,208,89,162,226,258,263,103,33,256,76,159,158,59,299,83,86,218,40,183,56,54,164,283,217,84,186,20,131,204,1,15,28,7,182,68,215,216,200,72,66,170,113,157,247,206,35,273,126,91,105,41,11,155,205,153,289,225,140,78,165,161,19,223,250,277,176,238,202,209,246,221,64,192,262,102,25,69,23,53,43,285,5,181,249,50,48,251,282,252,198,280,128,199,115,58,29,229,134,180,243,71,92,132,235,30,49,178,21,268,151,34,121,38,168,211,143,297,127,22,219,292,137,61,79,111,136,97,144,70,294,196,110,287,259,210,80,184,156,175,57,119,62,261,274,288,75,278,24,138,185,276,120,65,264,9,150,51,239,242,207,241,98,224,154,169,214,173,46,222,152,52,93,232,291,116,129,284,271,99,12,220,227,187,101,133,0,14,135,122,145,293,74,281,267,212,81,96,42,213,55,255,146,142,177,90,10,16,203,286,171,45,26,82,270,163,94,253,149,266,36,248,234,166,44,37,147,188,118,197,233,108,112,87,230,279,260,85,125,124,2,67,245,179,88,244,123,174,73,190,3,148,109,6,32,167,60,231,104,106,295,139,191,4,296,236,160,272,194,107,77,117,13,189,201,17,269,298,95,240,195,237,130,228,193,63,47,265,172,39,275,141],"cliqueSize":60,"correctResponse":"arrowleft","correctnessOfResponse":true,"presentationNumber":14,"trial_type":"canvas-keyboard-response","trial_index":74,"time_elapsed":58363,"internal_node_id":"0.0-60.5-0.5-0.5"},{"rt":625,"response":" ","nodesOrdering":[58,101,37,147,12,227,123,102,248,185,19,296,262,124,264,218,188,60,231,31,1,126,6,74,195,56,204,98,17,283,49,72,81,52,263,155,153,265,224,26,143,238,233,261,292,25,169,76,245,57,242,176,208,32,299,48,255,18,207,192,172,203,180,87,20,291,269,289,3,298,10,201,167,156,181,118,67,47,129,115,43,194,136,91,166,237,42,197,202,232,82,23,66,251,109,154,210,33,86,24,5,274,290,164,266,215,168,9,38,45,110,41,199,273,70,90,83,246,133,177,165,54,65,94,196,120,286,28,0,161,270,200,137,84,27,254,253,223,228,239,236,105,53,221,182,4,7,212,121,222,250,257,50,93,96,240,150,141,85,241,116,275,162,142,209,287,107,79,99,148,216,252,75,132,234,268,276,69,259,51,247,191,2,206,230,260,40,189,271,55,277,198,13,244,46,134,170,103,171,281,36,139,138,288,140,97,187,278,294,59,163,95,285,160,213,114,158,21,183,119,22,173,80,219,35,190,249,178,77,117,15,135,220,62,272,175,293,226,68,78,229,108,297,144,243,295,111,152,179,88,205,92,284,16,130,214,29,146,106,174,256,127,280,211,282,8,63,235,225,14,149,128,151,279,44,267,30,61,64,34,89,100,71,113,112,157,125,39,11,159,184,131,186,104,193,145,122,217,73,258],"cliqueSize":50,"correctResponse":"arrowleft","presentationNumber":15,"trial_type":"canvas-keyboard-response","trial_index":75,"time_elapsed":59114,"internal_node_id":"0.0-61.0-0.0-0.0"},{"rt":623,"response":" ","nodesOrdering":[27,280,181,166,116,91,87,103,270,2,30,64,10,188,81,185,244,250,251,88,16,58,259,22,113,197,5,248,222,75,296,49,237,274,263,145,267,156,9,90,144,186,284,147,262,195,0,192,127,155,1,56,180,165,142,261,272,72,175,271,121,176,23,134,194,96,68,299,60,160,279,264,260,33,212,179,4,225,67,130,143,11,213,285,164,241,205,291,3,190,200,286,171,46,157,273,239,214,224,295,41,89,43,40,115,51,174,53,94,55,173,215,83,269,114,85,15,104,128,257,221,149,238,159,24,62,124,233,18,193,247,106,48,223,220,258,199,14,29,95,47,38,63,111,283,98,276,140,228,278,138,92,135,65,119,281,189,80,133,256,282,74,93,201,108,76,105,275,203,101,254,77,217,129,232,112,99,126,191,117,32,39,26,110,178,266,139,242,231,102,141,209,79,163,13,206,268,45,31,61,253,210,132,162,289,229,265,150,288,235,25,211,151,298,71,120,7,168,172,170,183,20,82,37,158,59,52,100,19,290,69,153,21,86,234,187,293,34,255,287,36,218,292,243,109,146,57,297,148,42,12,167,177,17,70,226,204,73,118,78,84,245,131,230,198,246,107,125,50,169,208,137,216,136,236,184,252,240,182,54,161,277,66,152,35,154,8,44,123,122,28,219,294,97,196,249,202,207,227,6],"cliqueSize":50,"correctResponse":"arrowleft","presentationNumber":15,"trial_type":"canvas-keyboard-response","trial_index":76,"time_elapsed":59862,"internal_node_id":"0.0-61.1-0.1-0.1"},{"rt":572,"response":" ","nodesOrdering":[199,59,185,37,41,18,27,193,148,275,230,171,158,2,294,203,207,247,206,278,80,261,218,45,79,182,20,89,141,130,113,52,286,181,156,50,263,289,249,70,201,102,129,217,110,283,223,255,67,111,222,92,47,142,198,211,151,7,62,221,77,231,296,93,246,127,98,239,83,66,154,178,75,225,76,15,107,60,200,205,236,157,14,65,166,187,137,56,86,195,213,71,167,26,91,226,276,240,51,121,164,69,49,29,23,248,150,215,88,170,271,96,63,94,64,4,274,145,101,208,48,103,162,8,282,97,16,106,44,183,136,173,122,21,17,147,192,177,292,232,184,87,160,112,116,81,270,227,237,254,33,126,197,273,176,1,209,257,58,54,35,109,43,6,95,153,244,159,152,259,189,57,72,120,262,172,242,36,40,179,19,124,117,12,38,9,90,250,104,105,143,194,272,78,133,82,188,161,175,132,190,290,297,165,196,191,202,210,3,280,140,10,228,234,108,25,84,174,212,298,31,233,266,30,288,285,253,99,85,287,216,118,229,279,123,291,32,144,268,28,46,277,256,135,149,61,22,243,169,214,204,295,128,13,241,235,68,115,139,245,299,252,238,34,293,251,269,134,100,125,264,284,5,73,0,224,74,186,119,11,131,265,163,24,155,114,220,281,42,260,39,168,53,138,219,267,258,180,146,55],"cliqueSize":50,"correctResponse":"arrowleft","presentationNumber":15,"trial_type":"canvas-keyboard-response","trial_index":77,"time_elapsed":60561,"internal_node_id":"0.0-61.2-0.2-0.2"},{"rt":605,"response":" ","nodesOrdering":[274,207,78,32,59,119,143,98,281,262,97,37,164,55,67,208,13,135,158,127,10,210,102,65,118,197,86,184,269,120,217,247,291,11,245,224,137,26,70,84,36,27,203,42,215,242,233,230,237,153,174,17,77,69,117,83,189,50,264,163,228,109,282,144,51,125,121,285,89,206,150,177,188,85,112,157,260,73,100,16,54,154,44,267,227,238,173,71,152,43,252,1,257,298,113,88,19,161,99,23,248,49,149,266,39,185,297,259,169,284,34,243,251,5,56,146,229,250,253,156,57,299,201,33,93,131,134,256,272,31,182,180,275,96,246,221,258,273,190,106,166,183,129,133,198,155,244,116,29,202,280,277,80,12,205,240,288,178,22,63,159,147,148,289,270,290,0,193,61,232,195,216,255,4,21,194,105,176,76,271,91,276,186,225,25,38,82,199,214,226,167,278,126,2,24,200,219,123,218,53,209,130,108,292,68,128,213,265,220,268,296,283,7,222,28,62,104,66,107,48,58,64,47,181,211,151,20,74,101,14,136,236,231,162,179,35,192,286,114,145,115,110,142,30,103,124,241,254,6,72,45,287,138,122,187,95,223,204,94,9,293,140,263,75,79,3,60,46,141,261,295,234,90,172,175,170,160,168,40,239,41,196,212,235,294,139,8,249,18,15,87,81,165,132,171,191,279,52,92,111],"cliqueSize":50,"correctResponse":"arrowleft","presentationNumber":15,"trial_type":"canvas-keyboard-response","trial_index":78,"time_elapsed":61284,"internal_node_id":"0.0-61.3-0.3-0.3"},{"rt":609,"response":" ","nodesOrdering":[153,63,194,159,266,212,192,294,46,247,225,114,36,217,298,67,7,56,97,40,253,95,76,61,44,135,52,291,186,157,149,142,80,189,276,39,23,169,53,134,238,2,250,138,117,270,88,284,148,187,166,176,177,96,231,75,18,68,122,120,258,206,271,158,113,41,26,156,140,90,72,14,93,118,129,183,151,218,222,190,269,209,198,127,152,256,282,211,16,31,267,220,83,0,4,228,73,249,69,196,155,25,47,265,102,170,235,259,77,162,273,3,281,290,57,234,168,9,145,59,286,154,236,137,248,19,92,278,178,195,34,106,232,288,174,175,29,299,74,48,272,224,167,237,184,214,297,239,1,144,191,132,110,91,128,79,226,275,240,89,216,251,274,98,296,201,246,172,103,263,150,252,94,215,180,17,292,126,24,171,257,244,283,261,38,5,289,197,6,30,161,223,115,104,84,13,121,279,58,37,109,139,133,204,229,8,260,55,54,277,213,205,131,287,243,160,51,101,86,264,199,233,207,45,85,147,193,268,35,66,230,255,125,20,123,210,179,262,43,70,146,116,188,173,241,185,33,99,71,27,245,81,105,285,78,182,293,60,100,82,221,165,124,130,164,143,111,203,181,32,10,108,107,28,242,112,219,65,141,62,11,254,21,200,12,49,64,22,280,136,227,163,208,50,295,119,87,42,15,202],"cliqueSize":50,"correctResponse":"arrowleft","presentationNumber":15,"trial_type":"canvas-keyboard-response","trial_index":79,"time_elapsed":62012,"internal_node_id":"0.0-61.4-0.4-0.4"},{"rt":1030,"response":"arrowright","nodesOrdering":[5,262,143,30,164,106,66,146,81,218,170,120,83,160,32,225,99,260,86,297,226,76,251,180,39,154,162,271,153,169,43,145,266,9,250,245,141,78,298,289,58,278,122,166,11,270,135,47,239,63,72,64,57,35,8,44,132,296,194,31,56,42,129,90,198,152,206,121,265,95,159,257,284,155,177,173,200,53,69,41,21,269,259,176,168,171,134,111,109,227,79,272,208,14,215,295,178,209,45,136,48,94,299,283,51,65,182,113,115,158,128,22,185,131,167,12,188,214,221,253,157,18,238,151,148,276,231,241,203,133,2,28,37,230,191,235,97,40,93,264,123,100,60,211,33,223,46,287,210,186,150,282,195,85,54,254,252,68,244,220,119,96,82,0,249,87,179,275,25,199,229,62,277,196,279,190,116,55,27,261,256,174,242,19,258,142,243,217,101,236,52,205,23,149,84,105,247,102,216,108,192,127,222,118,286,103,165,67,16,104,285,80,36,246,26,77,181,248,4,50,59,138,24,126,197,240,274,20,237,183,124,187,281,112,91,49,267,204,70,193,3,89,144,233,73,71,6,34,74,280,156,292,137,7,13,189,130,125,161,268,1,38,207,294,10,75,117,88,224,92,147,184,228,232,288,293,140,107,110,291,219,290,61,175,114,17,98,15,255,234,163,212,263,213,29,201,172,273,139,202],"cliqueSize":50,"correctResponse":"arrowleft","correctnessOfResponse":false,"presentationNumber":15,"trial_type":"canvas-keyboard-response","trial_index":80,"time_elapsed":63178,"internal_node_id":"0.0-61.5-0.5-0.5"},{"rt":683,"response":" ","nodesOrdering":[95,130,33,256,80,296,131,257,151,93,261,188,119,194,276,171,5,283,104,25,235,77,265,16,105,132,193,267,150,179,97,217,86,200,2,42,87,68,268,220,14,71,91,272,63,190,238,242,65,202,219,45,176,227,133,203,182,128,125,36,233,109,167,142,186,199,60,103,148,113,282,177,291,26,69,74,234,231,185,146,240,54,43,48,294,110,286,163,211,191,288,90,210,116,62,249,39,145,218,140,214,107,117,66,96,156,223,168,122,226,293,250,273,285,166,73,121,154,262,152,254,162,10,53,289,134,174,215,241,278,147,3,187,127,153,22,225,32,44,82,67,139,198,212,56,21,161,106,34,204,64,70,184,8,49,275,295,24,169,51,4,255,111,197,88,50,274,245,208,108,40,100,143,126,144,266,173,135,229,252,287,59,183,207,244,101,19,78,195,30,81,269,164,216,52,35,47,79,84,92,243,259,27,258,213,232,299,230,246,281,11,31,28,290,61,55,298,170,112,115,124,72,253,292,46,180,129,239,206,284,221,120,165,237,264,277,209,160,205,172,270,15,247,157,236,149,0,123,189,29,155,118,12,178,99,94,260,297,138,279,159,271,9,222,136,192,83,228,76,280,75,23,13,89,17,114,141,20,58,196,181,224,175,248,137,37,38,1,102,7,6,57,201,41,85,98,263,158,251,18],"cliqueSize":40,"correctResponse":"arrowright","presentationNumber":16,"trial_type":"canvas-keyboard-response","trial_index":81,"time_elapsed":63977,"internal_node_id":"0.0-62.0-0.0-0.0"},{"rt":584,"response":" ","nodesOrdering":[126,171,181,157,262,125,135,31,98,225,266,155,185,193,139,152,11,176,119,257,221,92,53,260,88,37,91,141,248,234,143,118,137,238,233,187,247,87,85,33,216,156,218,220,263,17,293,66,15,94,229,146,236,2,39,172,268,182,235,130,107,35,133,58,63,90,74,250,78,129,75,201,44,99,253,50,64,71,26,188,281,60,199,149,154,27,3,191,294,258,295,111,280,127,190,290,138,165,42,93,56,140,134,287,279,251,158,203,16,291,246,89,289,72,22,271,205,299,228,82,51,211,5,136,7,242,194,150,132,237,61,110,178,207,170,169,161,120,36,96,67,30,95,196,272,245,144,179,192,115,212,47,224,219,116,81,204,214,79,80,145,20,45,23,117,128,189,109,226,249,19,73,142,77,241,100,292,239,83,259,215,175,86,25,54,49,288,286,267,244,209,195,112,265,122,164,213,153,29,12,227,160,131,222,173,21,76,159,282,106,70,223,202,113,84,97,69,102,65,24,108,276,34,200,261,4,62,59,0,270,38,198,283,269,210,114,264,273,147,6,217,256,255,57,9,278,297,167,18,105,123,254,184,148,55,206,10,121,296,166,151,68,232,52,32,46,186,28,1,162,104,101,103,277,43,231,13,41,285,48,230,8,177,124,180,40,183,240,208,284,298,174,163,252,274,14,197,243,168,275],"cliqueSize":40,"correctResponse":"arrowright","presentationNumber":16,"trial_type":"canvas-keyboard-response","trial_index":82,"time_elapsed":64679,"internal_node_id":"0.0-62.1-0.1-0.1"},{"rt":620,"response":" ","nodesOrdering":[288,152,85,256,248,116,125,215,244,132,192,34,79,9,126,87,190,103,259,58,162,64,239,225,22,243,76,158,204,172,25,140,297,40,214,11,245,242,143,207,53,71,208,255,155,182,56,281,154,100,60,286,276,290,142,35,4,66,188,229,178,1,279,129,228,275,174,102,136,88,263,269,292,112,270,284,77,195,41,110,209,94,30,268,201,81,26,28,65,123,120,68,186,216,115,167,139,169,89,138,48,298,133,13,157,127,219,114,203,146,141,261,163,73,12,104,210,97,156,32,98,173,86,69,285,119,277,49,135,96,223,78,59,184,0,122,191,179,283,211,124,241,264,233,149,224,27,273,213,253,212,237,131,38,43,199,293,108,18,101,52,252,222,80,262,278,291,42,31,99,166,29,130,289,295,67,180,236,164,107,57,113,271,61,63,257,160,150,181,185,2,10,235,220,21,274,221,151,165,250,137,5,45,183,296,272,227,46,267,260,177,51,8,55,90,294,193,196,299,153,109,105,39,205,175,6,24,14,231,206,251,62,106,266,36,194,187,70,47,23,287,84,282,145,7,128,265,37,258,198,74,93,254,226,118,121,111,148,54,234,202,168,33,200,20,280,159,44,240,95,238,50,3,91,218,144,17,170,83,82,15,117,92,249,197,147,189,232,16,246,247,75,134,217,19,161,171,230,176,72],"cliqueSize":40,"correctResponse":"arrowright","presentationNumber":16,"trial_type":"canvas-keyboard-response","trial_index":83,"time_elapsed":65415,"internal_node_id":"0.0-62.2-0.2-0.2"},{"rt":696,"response":" ","nodesOrdering":[26,92,142,129,222,203,147,44,52,51,124,218,183,211,16,225,156,108,247,71,105,42,187,229,196,84,109,248,100,113,125,55,165,265,177,283,126,9,162,253,214,236,8,122,97,120,27,50,45,128,290,19,87,200,262,189,173,119,102,107,291,249,238,13,294,31,289,279,160,0,193,130,205,154,18,69,94,61,272,65,104,234,221,152,39,254,134,277,263,38,255,287,139,227,12,293,98,111,80,237,179,72,197,91,281,132,59,137,151,243,239,36,58,34,261,268,244,182,170,112,76,167,215,83,209,35,95,266,257,88,251,288,24,181,195,206,40,171,82,201,232,11,188,118,15,175,242,264,133,46,273,186,180,89,110,48,158,235,213,96,32,66,17,190,228,64,246,53,131,216,5,127,138,79,37,296,292,41,136,25,68,49,220,21,28,274,217,282,149,207,155,259,23,3,86,275,299,191,208,194,269,250,62,121,73,226,90,123,63,169,20,258,103,1,212,6,176,252,150,2,166,115,146,240,99,67,57,285,116,22,135,219,178,74,93,184,256,267,114,270,54,161,143,231,199,271,276,106,14,30,85,159,286,204,297,101,153,295,233,174,78,145,29,33,56,241,172,75,7,163,47,298,43,157,230,202,224,164,192,144,198,168,81,260,185,70,223,60,148,4,140,10,117,284,77,278,280,245,210,141],"cliqueSize":40,"correctResponse":"arrowright","presentationNumber":16,"trial_type":"canvas-keyboard-response","trial_index":84,"time_elapsed":66240,"internal_node_id":"0.0-62.3-0.3-0.3"},{"rt":712,"response":"arrowleft","nodesOrdering":[19,46,229,128,59,199,104,106,231,252,149,96,233,55,93,109,4,234,215,76,30,102,186,70,246,34,92,9,83,280,23,130,285,129,51,288,82,148,113,36,174,54,257,103,75,29,245,183,69,67,98,227,169,177,225,253,2,153,173,165,64,290,235,205,152,281,49,277,179,299,232,121,286,160,163,3,37,262,48,200,158,144,168,224,91,12,99,250,72,35,156,155,5,145,38,123,203,13,52,114,226,32,247,228,6,138,278,210,218,84,61,208,221,60,126,176,204,175,213,39,184,194,127,94,240,282,21,293,265,220,295,86,107,211,283,40,146,178,42,192,87,259,111,239,77,241,45,216,88,74,263,181,244,162,255,7,80,236,230,251,147,151,274,50,219,279,85,214,66,276,150,115,198,267,273,249,122,0,193,78,196,289,124,164,243,217,297,264,258,161,254,95,248,71,139,62,134,16,53,116,270,167,17,41,28,157,10,271,142,90,207,131,31,47,15,189,206,119,187,81,141,272,136,266,172,110,105,294,182,63,170,22,223,18,166,137,242,135,68,171,275,132,8,154,261,79,185,43,24,27,284,268,108,191,140,65,291,195,212,97,26,197,57,14,58,190,202,201,1,260,125,298,143,292,180,238,120,112,188,101,117,20,133,73,269,222,56,159,296,237,287,100,256,33,11,89,25,209,44,118],"cliqueSize":40,"correctResponse":"arrowright","correctnessOfResponse":false,"presentationNumber":16,"trial_type":"canvas-keyboard-response","trial_index":85,"time_elapsed":67073,"internal_node_id":"0.0-62.4-0.4-0.4"},{"rt":552,"response":" ","nodesOrdering":[211,246,158,242,123,129,269,199,17,118,114,226,161,16,26,188,3,280,196,117,286,294,245,223,257,125,134,179,216,164,24,44,1,138,82,48,8,189,96,86,93,224,256,283,43,136,281,69,141,147,113,156,49,234,18,220,186,167,60,275,115,284,210,206,160,291,215,183,273,79,230,187,240,241,202,101,85,95,227,270,150,173,247,175,222,59,97,112,73,295,266,262,148,165,83,89,282,122,94,66,88,205,104,267,264,298,0,133,20,155,168,193,180,99,276,121,30,35,80,214,213,272,124,47,92,170,12,81,192,33,194,277,152,54,46,84,176,207,169,67,57,10,100,102,154,201,91,159,258,14,53,76,108,249,120,144,116,130,127,78,149,62,255,77,203,111,38,217,157,235,243,238,145,45,184,195,27,250,103,225,219,142,208,251,37,166,87,236,229,292,25,261,185,293,131,105,29,140,271,200,9,55,237,74,191,21,228,15,28,279,42,263,34,289,98,72,50,61,153,6,260,248,204,32,63,252,162,5,7,119,143,299,209,110,64,254,163,218,212,51,135,22,4,278,41,132,109,239,174,231,65,244,23,221,233,71,52,40,172,126,31,36,178,139,58,56,265,190,274,253,290,268,181,287,68,171,11,232,285,177,296,2,259,75,297,70,19,146,151,107,137,197,288,13,90,198,39,106,128,182],"cliqueSize":30,"correctResponse":"arrowright","presentationNumber":17,"trial_type":"canvas-keyboard-response","trial_index":86,"time_elapsed":67754,"internal_node_id":"0.0-63.0-0.0-0.0"},{"rt":509,"response":" ","nodesOrdering":[143,250,116,190,49,119,0,15,235,92,171,34,130,100,197,215,283,169,36,10,113,2,27,270,80,89,257,135,156,78,224,239,222,226,153,90,32,174,72,279,276,191,59,240,93,147,249,255,245,88,286,139,241,133,28,66,123,269,106,262,168,284,201,213,75,252,26,211,136,46,167,227,274,194,253,47,184,51,161,223,248,193,242,228,166,258,127,110,97,256,117,181,141,155,151,236,208,282,272,94,91,8,289,157,230,299,104,233,118,67,179,33,178,266,125,35,68,96,154,79,288,275,86,198,62,30,108,268,38,48,6,4,23,187,164,244,12,186,18,254,56,175,137,160,71,13,290,132,281,189,173,158,199,180,261,221,22,146,140,287,57,87,163,142,24,185,19,134,159,234,3,126,203,41,40,95,192,278,31,291,17,205,61,77,237,231,5,188,98,101,14,297,102,294,69,1,124,152,131,55,267,128,247,264,64,263,246,195,218,52,183,176,120,29,58,219,243,121,209,54,196,150,42,103,229,165,43,162,217,204,207,212,214,115,285,53,109,182,122,277,20,210,172,107,238,105,216,292,16,37,293,60,138,45,296,50,232,251,81,145,82,259,9,144,225,21,65,111,83,206,177,74,63,298,25,112,265,220,149,129,7,11,273,39,170,200,44,85,148,73,76,271,114,280,202,99,70,295,84,260],"cliqueSize":30,"correctResponse":"arrowright","presentationNumber":17,"trial_type":"canvas-keyboard-response","trial_index":87,"time_elapsed":68385,"internal_node_id":"0.0-63.1-0.1-0.1"},{"rt":540,"response":" ","nodesOrdering":[21,89,266,95,124,127,1,123,132,22,169,68,241,104,83,23,31,227,273,113,72,91,116,80,111,267,287,13,236,201,166,100,193,291,118,189,34,139,61,299,5,229,19,98,210,196,292,125,70,149,43,254,184,143,9,14,182,290,71,171,263,202,226,240,146,161,286,60,66,147,131,274,122,271,232,220,222,187,62,204,230,67,247,238,239,48,144,235,162,151,87,105,107,200,172,44,7,45,73,252,10,0,277,35,177,112,206,234,276,121,17,228,298,157,136,20,25,167,79,294,4,76,6,270,120,289,30,211,152,199,251,47,269,77,78,265,242,29,28,36,65,233,50,141,213,49,260,12,256,11,142,137,208,168,51,42,280,97,174,170,209,205,163,130,278,181,53,16,3,297,259,175,261,203,164,39,46,58,81,103,2,284,82,75,33,207,63,106,37,69,135,279,86,64,18,55,221,190,246,283,248,32,88,282,38,99,160,191,218,185,96,225,128,52,288,24,148,158,101,224,138,272,108,245,217,195,90,133,155,114,250,154,295,41,59,216,102,145,84,268,231,93,15,178,258,74,92,255,243,8,117,264,293,249,186,156,198,140,183,153,197,26,212,165,223,194,94,119,285,257,85,129,159,115,188,40,244,296,262,219,180,176,253,192,275,150,215,126,27,110,134,57,56,173,54,214,179,109,237,281],"cliqueSize":30,"correctResponse":"arrowright","presentationNumber":17,"trial_type":"canvas-keyboard-response","trial_index":88,"time_elapsed":69054,"internal_node_id":"0.0-63.2-0.2-0.2"},{"rt":573,"response":"arrowright","nodesOrdering":[36,107,241,156,187,138,284,265,134,54,100,204,5,161,210,56,47,189,249,20,76,52,229,147,186,6,290,33,51,214,291,244,42,85,168,119,94,207,173,182,130,79,215,124,281,87,202,142,166,223,217,278,192,178,102,73,218,248,4,19,228,190,96,279,50,133,11,125,43,201,191,160,98,72,220,58,120,269,294,261,236,135,238,48,180,111,28,117,234,288,152,115,129,41,222,132,23,230,44,246,266,193,287,97,29,232,240,250,122,184,83,164,80,25,151,252,285,55,155,293,227,280,64,170,297,3,45,263,216,145,123,264,296,149,259,31,282,270,21,137,49,159,26,88,109,69,253,60,299,243,257,211,171,213,275,162,255,194,196,17,116,114,75,104,32,208,82,289,233,110,62,271,84,205,219,81,295,40,235,27,245,66,212,195,92,175,90,197,251,292,105,103,183,274,14,12,221,206,112,126,172,200,225,165,242,67,15,199,39,276,22,16,1,163,179,35,224,89,139,118,61,65,136,7,177,34,9,231,101,260,153,239,181,68,106,59,185,91,169,93,24,258,176,128,141,70,209,188,10,63,286,71,13,267,203,158,38,30,77,167,157,95,8,272,46,262,254,148,146,53,247,86,237,226,198,74,143,37,99,78,131,113,127,121,174,57,2,283,256,298,154,0,277,150,144,108,140,273,268,18],"cliqueSize":30,"correctResponse":"arrowright","correctnessOfResponse":true,"presentationNumber":17,"trial_type":"canvas-keyboard-response","trial_index":89,"time_elapsed":69746,"internal_node_id":"0.0-63.3-0.3-0.3"},{"rt":597,"response":" ","nodesOrdering":[46,156,52,65,1,150,71,165,204,39,83,280,260,27,108,142,245,174,223,206,109,154,222,105,88,124,97,80,10,176,186,36,143,182,299,116,256,110,90,60,242,146,253,32,211,161,121,287,59,128,42,66,41,288,120,11,292,96,194,236,181,294,216,135,207,74,282,257,55,103,76,16,37,190,238,252,291,215,48,183,208,281,267,107,13,84,263,164,191,166,31,119,187,35,250,79,185,53,212,8,177,262,145,232,2,247,34,18,122,62,38,133,93,259,205,40,254,9,87,231,129,7,209,3,197,160,229,25,246,139,57,249,199,72,214,89,192,227,61,273,196,95,147,54,296,47,219,85,117,261,218,106,17,170,140,200,67,44,0,144,198,49,266,172,225,86,158,114,5,63,22,241,268,239,23,162,157,290,104,180,155,221,58,269,274,193,50,123,293,69,159,131,171,195,26,137,243,289,113,153,45,70,265,12,56,127,244,68,149,201,258,29,203,101,136,73,81,163,168,179,264,30,77,255,295,188,126,235,4,33,78,82,217,14,148,237,284,283,298,125,19,102,141,279,234,24,151,210,297,189,228,92,132,220,51,138,278,270,251,285,64,173,277,271,21,6,233,276,94,178,99,230,226,112,43,272,224,213,15,248,167,91,118,152,286,134,275,28,115,202,100,184,111,98,75,130,240,175,169,20],"cliqueSize":20,"correctResponse":"arrowright","presentationNumber":18,"trial_type":"canvas-keyboard-response","trial_index":90,"time_elapsed":70472,"internal_node_id":"0.0-64.0-0.0-0.0"},{"rt":611,"response":" ","nodesOrdering":[11,170,191,125,95,262,268,189,1,82,293,212,130,199,101,26,30,113,16,225,103,238,121,177,294,147,296,181,89,93,272,223,92,208,252,276,105,56,248,261,209,6,227,150,259,278,179,281,155,3,224,72,204,70,242,264,78,269,290,47,182,90,52,20,46,149,139,255,190,159,79,258,104,117,207,55,176,107,2,246,66,273,152,211,80,251,44,13,221,158,85,122,32,64,205,275,236,8,146,48,145,282,274,0,9,171,265,109,292,126,23,144,49,201,7,28,33,284,116,185,4,133,228,68,193,299,234,164,169,129,120,100,143,38,15,94,41,140,280,163,184,229,141,135,57,18,42,172,17,165,230,237,192,188,266,161,214,65,12,285,168,119,22,239,279,29,216,87,245,88,59,132,244,14,138,219,136,215,153,287,99,114,10,210,91,297,270,253,263,71,289,220,77,198,195,156,123,283,186,206,31,218,37,222,97,36,173,250,148,128,233,166,260,124,178,40,142,43,75,162,86,243,134,112,167,102,180,226,286,200,174,76,154,267,213,96,83,108,25,69,157,137,151,131,58,54,50,34,67,295,232,235,53,45,74,63,5,231,98,271,160,183,298,254,288,27,197,84,81,202,256,240,110,19,73,24,115,203,194,291,241,21,35,118,175,39,277,257,61,196,106,247,249,111,60,217,127,187,51,62],"cliqueSize":20,"correctResponse":"arrowright","presentationNumber":18,"trial_type":"canvas-keyboard-response","trial_index":91,"time_elapsed":71203,"internal_node_id":"0.0-64.1-0.1-0.1"},{"rt":546,"response":" ","nodesOrdering":[46,164,35,15,45,207,123,76,261,132,234,57,104,134,62,175,149,71,5,24,162,25,102,184,11,121,191,285,89,61,7,99,153,117,168,262,181,129,29,140,69,75,120,216,106,155,157,225,66,217,290,224,116,176,128,114,297,273,222,238,78,156,18,6,194,165,233,242,4,247,185,98,254,288,51,174,2,244,267,280,37,124,93,251,147,180,85,264,150,148,59,289,16,74,52,56,218,151,227,256,97,245,118,108,203,87,154,287,96,200,239,240,278,80,111,243,23,229,34,22,190,72,226,105,131,259,274,49,186,241,63,263,146,291,266,193,166,81,183,187,192,8,43,293,126,54,204,3,152,276,136,28,53,17,213,232,73,250,296,167,160,279,130,214,236,182,13,277,84,286,189,177,252,40,249,47,292,88,215,201,295,275,36,178,95,260,137,122,41,39,219,67,143,33,60,92,195,231,30,294,210,161,65,9,284,68,14,31,1,228,138,94,170,100,113,107,196,199,209,79,55,103,12,101,21,26,179,258,211,70,206,298,64,144,20,220,139,246,198,141,269,90,253,205,270,135,86,230,44,221,42,91,248,145,255,172,197,173,281,257,133,142,0,48,223,202,171,237,83,271,169,10,159,77,32,38,19,265,110,235,212,27,50,82,158,125,282,119,115,208,188,268,272,112,163,283,127,58,299,109],"cliqueSize":20,"correctResponse":"arrowright","presentationNumber":18,"trial_type":"canvas-keyboard-response","trial_index":92,"time_elapsed":71865,"internal_node_id":"0.0-64.2-0.2-0.2"},{"rt":619,"response":"arrowright","nodesOrdering":[266,17,243,294,214,127,205,289,264,237,170,112,298,284,240,287,92,77,188,239,32,74,83,168,22,299,234,3,14,39,281,136,106,253,296,122,72,261,115,217,25,212,133,280,263,130,120,184,51,164,213,107,271,89,206,96,200,178,46,275,114,34,108,109,260,43,186,38,166,24,55,113,69,142,223,102,254,143,88,78,125,222,4,23,37,221,182,149,87,121,193,210,145,290,293,248,158,155,295,197,173,144,131,238,180,90,53,199,169,157,2,11,60,71,73,220,242,167,259,139,288,58,94,66,231,174,52,141,252,179,279,247,277,82,50,151,28,273,64,54,224,85,99,35,187,251,48,278,97,147,12,268,95,283,148,15,100,150,258,233,81,191,202,128,10,86,156,6,61,42,49,249,31,211,196,209,250,198,19,137,117,33,21,190,274,228,245,1,13,124,65,146,5,45,203,241,111,79,47,225,267,270,185,9,262,244,30,27,163,36,276,189,18,67,110,16,20,76,161,126,70,183,68,75,176,105,297,255,282,192,129,159,269,175,218,162,44,80,285,154,118,232,291,57,204,116,207,59,132,265,63,246,219,181,29,272,91,208,172,286,229,40,123,62,26,138,292,226,230,140,257,165,152,0,135,194,195,177,7,84,103,104,134,41,256,153,236,201,56,93,215,119,216,8,98,227,171,235,160,101],"cliqueSize":20,"correctResponse":"arrowright","correctnessOfResponse":true,"presentationNumber":18,"trial_type":"canvas-keyboard-response","trial_index":93,"time_elapsed":72626,"internal_node_id":"0.0-64.3-0.3-0.3"},{"rt":693,"response":" ","nodesOrdering":[11,104,31,160,52,82,289,77,95,142,81,242,53,221,28,290,236,295,55,208,288,90,54,20,100,259,44,16,78,34,294,48,74,186,220,210,265,280,51,106,246,56,133,50,76,105,22,257,152,123,153,258,189,157,3,58,299,87,138,266,45,178,36,247,283,264,13,33,183,282,298,113,162,14,124,171,67,136,205,146,188,168,10,217,97,65,4,114,234,253,118,86,243,96,286,163,26,61,227,108,203,93,15,216,102,148,229,70,293,209,200,71,62,273,279,159,166,292,112,223,193,111,206,25,134,19,235,173,75,92,196,154,182,131,262,129,224,0,149,212,8,277,5,38,115,39,135,137,165,187,215,170,202,30,126,213,232,9,99,116,35,248,24,207,185,150,122,89,174,64,72,197,297,1,271,164,91,109,244,296,201,27,252,37,281,143,269,219,191,263,12,291,199,285,245,255,141,145,47,180,260,49,132,18,256,156,240,147,40,101,190,268,204,63,192,287,128,276,284,42,241,272,214,239,211,169,73,59,181,130,233,179,144,275,228,7,158,68,261,251,83,274,267,17,155,175,119,222,177,94,57,184,278,127,69,194,66,32,84,2,250,198,120,125,121,218,254,167,226,107,60,151,270,176,85,80,139,21,230,29,225,6,79,172,43,103,249,46,195,23,110,237,88,117,41,161,231,98,140,238],"cliqueSize":10,"correctResponse":"arrowleft","presentationNumber":19,"trial_type":"canvas-keyboard-response","trial_index":94,"time_elapsed":73447,"internal_node_id":"0.0-65.0-0.0-0.0"},{"rt":578,"response":" ","nodesOrdering":[257,14,207,189,206,261,194,47,232,293,244,91,176,159,186,204,155,277,278,122,123,112,267,173,64,213,16,23,185,296,180,25,272,201,136,60,177,86,110,195,103,76,61,154,117,251,258,175,80,6,280,138,28,249,160,281,200,72,274,273,294,287,105,286,250,263,298,46,266,97,130,199,81,226,67,26,299,284,162,275,11,203,140,283,128,50,1,239,265,192,255,88,168,256,259,65,222,22,101,129,63,242,98,225,132,49,147,167,191,276,224,94,205,229,171,9,212,193,118,0,220,42,99,252,137,19,149,208,178,233,236,119,74,142,13,238,3,165,235,73,135,174,5,245,116,139,40,221,161,148,209,29,78,196,69,41,108,100,125,79,109,55,77,113,104,292,172,30,187,127,143,262,21,285,163,66,217,231,223,248,279,90,124,12,58,75,10,84,246,45,39,164,153,111,243,182,253,92,133,290,54,151,85,38,152,87,33,289,20,157,227,51,95,166,158,35,188,52,264,254,219,241,70,271,36,202,146,18,240,170,96,106,120,282,27,8,297,156,53,197,57,48,288,211,268,2,215,134,34,4,190,230,115,234,82,43,247,126,83,169,68,198,269,183,44,32,150,228,237,181,56,121,114,145,260,71,37,24,291,218,184,102,210,62,295,89,179,7,144,141,131,15,59,17,270,107,93,31,216,214],"cliqueSize":10,"correctResponse":"arrowleft","presentationNumber":19,"trial_type":"canvas-keyboard-response","trial_index":95,"time_elapsed":74146,"internal_node_id":"0.0-65.1-0.1-0.1"},{"rt":573,"response":" ","nodesOrdering":[298,149,60,275,57,212,195,182,136,142,279,159,34,258,121,166,176,164,189,155,8,187,97,262,184,38,163,140,23,208,261,103,260,40,26,117,67,79,292,127,73,168,225,65,278,150,230,244,169,271,76,221,63,250,144,49,297,22,254,152,197,296,137,192,287,36,286,100,172,193,91,47,277,33,201,185,183,92,249,107,118,143,5,75,94,69,11,194,207,55,145,232,243,272,7,53,234,283,138,269,218,18,248,101,188,115,147,39,62,190,4,59,180,293,151,148,268,99,173,214,236,133,50,158,257,247,77,156,233,81,96,186,276,70,37,171,252,157,204,241,154,265,24,209,139,175,203,30,120,87,291,200,108,281,95,274,42,141,105,84,238,170,132,35,66,242,93,43,0,256,15,213,102,110,112,289,125,263,68,17,48,64,71,89,196,126,45,88,16,231,160,284,27,14,56,181,210,223,90,215,153,191,290,54,205,111,288,9,222,80,267,12,239,285,31,58,273,41,146,161,266,224,165,61,227,19,280,198,299,219,294,98,259,83,74,211,240,28,130,167,20,116,72,6,129,21,1,3,46,78,119,179,295,123,216,251,25,29,226,104,228,82,199,85,124,177,255,113,235,253,217,106,114,270,32,202,122,134,13,206,44,109,86,245,178,52,135,2,162,246,174,220,237,51,131,128,10,264,282,229],"cliqueSize":10,"correctResponse":"arrowleft","presentationNumber":19,"trial_type":"canvas-keyboard-response","trial_index":96,"time_elapsed":74847,"internal_node_id":"0.0-65.2-0.2-0.2"},{"rt":621,"response":"arrowright","nodesOrdering":[142,261,228,2,111,203,199,125,41,113,225,124,195,74,187,115,166,193,149,135,209,268,275,150,230,109,5,240,190,25,250,0,122,118,287,73,174,29,286,144,140,53,81,139,86,130,132,248,82,129,246,128,172,253,51,223,61,160,117,205,7,297,137,216,49,92,222,188,99,40,83,232,299,80,20,121,278,204,280,44,136,48,249,219,285,4,147,266,226,148,30,179,202,138,131,56,12,208,38,191,252,158,260,189,237,167,77,256,175,215,146,28,198,55,192,26,154,163,184,273,183,104,156,84,277,76,133,143,107,296,168,72,185,221,292,229,155,63,70,85,291,57,169,214,152,180,54,105,281,293,274,34,89,96,62,290,235,255,108,284,69,127,170,264,238,259,282,161,151,272,243,67,52,257,171,3,11,36,97,31,116,247,91,90,295,103,224,43,23,182,59,164,114,254,251,17,298,60,32,93,14,126,288,68,173,217,262,239,119,196,13,245,45,66,39,106,24,101,162,79,194,227,244,294,75,270,212,220,233,58,100,37,165,218,19,10,177,27,35,71,95,201,289,186,242,276,211,8,78,197,112,21,6,258,159,265,271,9,15,213,134,206,42,94,123,50,200,267,33,98,88,120,269,210,234,178,207,110,176,145,231,46,283,241,181,64,157,153,102,16,141,279,263,87,18,236,22,65,47,1],"cliqueSize":10,"correctResponse":"arrowleft","correctnessOfResponse":false,"presentationNumber":19,"trial_type":"canvas-keyboard-response","trial_index":97,"time_elapsed":75603,"internal_node_id":"0.0-65.3-0.3-0.3"}]