[{"view_history":[{"page_index":0,"viewing_time":2199},{"page_index":1,"viewing_time":1043}],"rt":3242,"trial_type":"instructions","trial_index":0,"time_elapsed":3244,"internal_node_id":"0.0-0.0"},{"success":true,"timeout":false,"failed_images":[],"failed_audio":[],"failed_video":[],"trial_type":"preload","trial_index":1,"time_elapsed":3326,"internal_node_id":"0.0-1.0"},{"view_history":[{"page_index":0,"viewing_time":739},{"page_index":1,"viewing_time":125},{"page_index":2,"viewing_time":144},{"page_index":3,"viewing_time":146},{"page_index":4,"viewing_time":156},{"page_index":5,"viewing_time":421},{"page_index":6,"viewing_time":187},{"page_index":7,"viewing_time":199},{"page_index":8,"viewing_time":163},{"page_index":9,"viewing_time":119},{"page_index":10,"viewing_time":178},{"page_index":11,"viewing_time":289},{"page_index":12,"viewing_time":164},{"page_index":13,"viewing_time":181},{"page_index":14,"viewing_time":137},{"page_index":15,"viewing_time":164},{"page_index":16,"viewing_time":173},{"page_index":17,"viewing_time":167},{"page_index":18,"viewing_time":142},{"page_index":19,"viewing_time":169},{"page_index":20,"viewing_time":136},{"page_index":21,"viewing_time":206},{"page_index":22,"viewing_time":117},{"page_index":23,"viewing_time":171},{"page_index":24,"viewing_time":133},{"page_index":25,"viewing_time":175},{"page_index":26,"viewing_time":116},{"page_index":27,"viewing_time":182},{"page_index":28,"viewing_time":126},{"page_index":29,"viewing_time":160},{"page_index":30,"viewing_time":122},{"page_index":31,"viewing_time":176},{"page_index":32,"viewing_time":139},{"page_index":33,"viewing_time":189},{"page_index":34,"viewing_time":295},{"page_index":35,"viewing_time":130},{"page_index":36,"viewing_time":201},{"page_index":37,"viewing_time":136},{"page_index":38,"viewing_time":208},{"page_index":39,"viewing_time":144},{"page_index":40,"viewing_time":205},{"page_index":41,"viewing_time":135},{"page_index":42,"viewing_time":176},{"page_index":43,"viewing_time":159},{"page_index":44,"viewing_time":181},{"page_index":45,"viewing_time":158},{"page_index":46,"viewing_time":177},{"page_index":47,"viewing_time":150},{"page_index":48,"viewing_time":165},{"page_index":49,"viewing_time":165},{"page_index":50,"viewing_time":172},{"page_index":51,"viewing_time":141},{"page_index":52,"viewing_time":191},{"page_index":53,"viewing_time":300},{"page_index":54,"viewing_time":310},{"page_index":55,"viewing_time":215},{"page_index":56,"viewing_time":248},{"page_index":57,"viewing_time":153},{"page_index":58,"viewing_time":416},{"page_index":59,"viewing_time":244},{"page_index":60,"viewing_time":204},{"page_index":61,"viewing_time":204},{"page_index":62,"viewing_time":186},{"page_index":63,"viewing_time":197},{"page_index":64,"viewing_time":175},{"page_index":65,"viewing_time":233},{"page_index":66,"viewing_time":148},{"page_index":67,"viewing_time":192},{"page_index":68,"viewing_time":131},{"page_index":69,"viewing_time":206},{"page_index":70,"viewing_time":152}],"rt":13514,"trial_type":"instructions","trial_index":2,"time_elapsed":16842,"internal_node_id":"0.0-2.0"},{"view_history":[{"page_index":0,"viewing_time":1277}],"rt":1277,"trial_type":"instructions","trial_index":3,"time_elapsed":18119,"internal_node_id":"0.0-3.0"},{"success":true,"timeout":false,"failed_images":[],"failed_audio":[],"failed_video":[],"trial_type":"preload","trial_index":4,"time_elapsed":18148,"internal_node_id":"0.0-4.0"},{"rt":286,"stimulus":"tutorial/task_familiarization_images/part 1/1_N300_K170_cliqueRight_question1.PNG","response":" ","trial_type":"image-keyboard-response","trial_index":5,"time_elapsed":18437,"internal_node_id":"0.0-5.0"},{"rt":210,"stimulus":"tutorial/task_familiarization_images/part 1/2_N300_K170_cliqueRight_question2.PNG","response":" ","trial_type":"image-keyboard-response","trial_index":6,"time_elapsed":18648,"internal_node_id":"0.0-6.0"},{"rt":1553,"stimulus":"tutorial/task_familiarization_images/part 1/3_N300_K170_cliqueRight_question3.PNG","response":"arrowleft","trial_type":"image-keyboard-response","trial_index":7,"time_elapsed":20204,"internal_node_id":"0.0-7.0"},{"rt":320,"stimulus":"tutorial/task_familiarization_images/part 1/4_N300_K170_cliqueRight_solution.PNG","response":" ","trial_type":"image-keyboard-response","trial_index":8,"time_elapsed":20525,"internal_node_id":"0.0-8.0"},{"rt":208,"stimulus":"tutorial/task_familiarization_images/part 1/5_N300_K120_cliqueRight_question1.PNG","response":" ","trial_type":"image-keyboard-response","trial_index":9,"time_elapsed":20735,"internal_node_id":"0.0-9.0"},{"rt":229,"stimulus":"tutorial/task_familiarization_images/part 1/6_N300_K120_cliqueRight_question2.PNG","response":" ","trial_type":"image-keyboard-response","trial_index":10,"time_elapsed":20965,"internal_node_id":"0.0-10.0"},{"rt":271,"stimulus":"tutorial/task_familiarization_images/part 1/7_N300_K120_cliqueRight_question3.PNG","response":"arrowright","trial_type":"image-keyboard-response","trial_index":11,"time_elapsed":21237,"internal_node_id":"0.0-11.0"},{"rt":240,"stimulus":"tutorial/task_familiarization_images/part 1/8_N300_K120_cliqueRight_solution.PNG","response":" ","trial_type":"image-keyboard-response","trial_index":12,"time_elapsed":21479,"internal_node_id":"0.0-12.0"},{"rt":242,"stimulus":"tutorial/task_familiarization_images/part 1/9_N300_K90_cliqueLeft_question1.PNG","response":" ","trial_type":"image-keyboard-response","trial_index":13,"time_elapsed":21723,"internal_node_id":"0.0-13.0"},{"rt":201,"stimulus":"tutorial/task_familiarization_images/part 1/10_N300_K90_cliqueLeft_question2.PNG","response":" ","trial_type":"image-keyboard-response","trial_index":14,"time_elapsed":21924,"internal_node_id":"0.0-14.0"},{"rt":171,"stimulus":"tutorial/task_familiarization_images/part 1/11_N300_K90_cliqueLeft_question3.PNG","response":"arrowleft","trial_type":"image-keyboard-response","trial_index":15,"time_elapsed":22096,"internal_node_id":"0.0-15.0"},{"rt":221,"stimulus":"tutorial/task_familiarization_images/part 1/12_N300_K90_cliqueLeft_solution.PNG","response":" ","trial_type":"image-keyboard-response","trial_index":16,"time_elapsed":22318,"internal_node_id":"0.0-16.0"},{"rt":215,"stimulus":"tutorial/task_familiarization_images/part 1/13_N300_K140_cliqueLeft_question1.PNG","response":" ","trial_type":"image-keyboard-response","trial_index":17,"time_elapsed":22535,"internal_node_id":"0.0-17.0"},{"rt":216,"stimulus":"tutorial/task_familiarization_images/part 1/14_N300_K140_cliqueLeft_question2.PNG","response":" ","trial_type":"image-keyboard-response","trial_index":18,"time_elapsed":22751,"internal_node_id":"0.0-18.0"},{"rt":146,"stimulus":"tutorial/task_familiarization_images/part 1/15_N300_K140_cliqueLeft_question3.PNG","response":"arrowleft","trial_type":"image-keyboard-response","trial_index":19,"time_elapsed":22898,"internal_node_id":"0.0-19.0"},{"rt":235,"stimulus":"tutorial/task_familiarization_images/part 1/16_N300_K140_cliqueLeft_solution.PNG","response":" ","trial_type":"image-keyboard-response","trial_index":20,"time_elapsed":23135,"internal_node_id":"0.0-20.0"},{"rt":196,"stimulus":"tutorial/task_familiarization_images/part 1/17_N300_K70_cliqueRight_question1.PNG","response":" ","trial_type":"image-keyboard-response","trial_index":21,"time_elapsed":23332,"internal_node_id":"0.0-21.0"},{"rt":197,"stimulus":"tutorial/task_familiarization_images/part 1/18_N300_K70_cliqueRight_question2.PNG","response":" ","trial_type":"image-keyboard-response","trial_index":22,"time_elapsed":23530,"internal_node_id":"0.0-22.0"},{"rt":171,"stimulus":"tutorial/task_familiarization_images/part 1/19_N300_K70_cliqueRight_question3.PNG","response":"arrowleft","trial_type":"image-keyboard-response","trial_index":23,"time_elapsed":23702,"internal_node_id":"0.0-23.0"},{"rt":217,"stimulus":"tutorial/task_familiarization_images/part 1/20_N300_K70_cliqueRight_solution.PNG","response":" ","trial_type":"image-keyboard-response","trial_index":24,"time_elapsed":23920,"internal_node_id":"0.0-24.0"},{"rt":219,"stimulus":"tutorial/task_familiarization_images/part 1/21_N300_K100_cliqueLeft_question1.PNG","response":" ","trial_type":"image-keyboard-response","trial_index":25,"time_elapsed":24140,"internal_node_id":"0.0-25.0"},{"rt":197,"stimulus":"tutorial/task_familiarization_images/part 1/22_N300_K100_cliqueLeft_question2.PNG","response":" ","trial_type":"image-keyboard-response","trial_index":26,"time_elapsed":24338,"internal_node_id":"0.0-26.0"},{"rt":212,"stimulus":"tutorial/task_familiarization_images/part 1/23_N300_K100_cliqueLeft_question3.PNG","response":"arrowleft","trial_type":"image-keyboard-response","trial_index":27,"time_elapsed":24551,"internal_node_id":"0.0-27.0"},{"rt":247,"stimulus":"tutorial/task_familiarization_images/part 1/24_N300_K100_cliqueLeft_solution.PNG","response":" ","trial_type":"image-keyboard-response","trial_index":28,"time_elapsed":24798,"internal_node_id":"0.0-28.0"},{"success":true,"timeout":false,"failed_images":[],"failed_audio":[],"failed_video":[],"trial_type":"preload","trial_index":29,"time_elapsed":24828,"internal_node_id":"0.0-29.0"},{"rt":173,"stimulus":"tutorial/task_familiarization_images/part 2/1_300_120_cliqueLeft_withFeedback_1.PNG","response":" ","trial_type":"image-keyboard-response","trial_index":30,"time_elapsed":25003,"internal_node_id":"0.0-30.0"},{"rt":206,"stimulus":"tutorial/task_familiarization_images/part 2/2_300_120_cliqueLeft_withFeedback_2.PNG","response":" ","trial_type":"image-keyboard-response","trial_index":31,"time_elapsed":25209,"internal_node_id":"0.0-31.0"},{"rt":478,"stimulus":"tutorial/task_familiarization_images/part 2/3_300_120_cliqueLeft_withFeedback_3.PNG","response":"arrowleft","trial_type":"image-keyboard-response","trial_index":32,"time_elapsed":25688,"internal_node_id":"0.0-32.0"},{"rt":265,"stimulus":"tutorial/task_familiarization_images/part 2/4_300_120_cliqueLeft_withFeedback_solution.PNG","response":" ","trial_type":"image-keyboard-response","trial_index":33,"time_elapsed":25954,"internal_node_id":"0.0-33.0"},{"rt":493,"stimulus":"tutorial/task_familiarization_images/part 2/5_300_120_cliqueLeft_withFeedback_correctAnswer.PNG","response":" ","trial_type":"image-keyboard-response","trial_index":34,"time_elapsed":26448,"internal_node_id":"0.0-34.0"},{"rt":339,"stimulus":"tutorial/task_familiarization_images/part 2/6_300_95_cliqueRight_withFeedback_1.PNG","response":" ","trial_type":"image-keyboard-response","trial_index":35,"time_elapsed":26788,"internal_node_id":"0.0-35.0"},{"rt":210,"stimulus":"tutorial/task_familiarization_images/part 2/7_300_95_cliqueRight_withFeedback_2.PNG","response":" ","trial_type":"image-keyboard-response","trial_index":36,"time_elapsed":26999,"internal_node_id":"0.0-36.0"},{"rt":493,"stimulus":"tutorial/task_familiarization_images/part 2/8_300_95_cliqueRight_withFeedback_3.PNG","response":"arrowright","trial_type":"image-keyboard-response","trial_index":37,"time_elapsed":27494,"internal_node_id":"0.0-37.0"},{"rt":192,"stimulus":"tutorial/task_familiarization_images/part 2/9_300_95_cliqueRight_withFeedback_solution.PNG","response":" ","trial_type":"image-keyboard-response","trial_index":38,"time_elapsed":27687,"internal_node_id":"0.0-38.0"},{"rt":205,"stimulus":"tutorial/task_familiarization_images/part 2/10_300_95_cliqueRight_withFeedback_correctAnswer.PNG","response":" ","trial_type":"image-keyboard-response","trial_index":39,"time_elapsed":27893,"internal_node_id":"0.0-39.0"},{"rt":202,"stimulus":"tutorial/task_familiarization_images/part 2/11_300_100_cliqueLeft_withFeedback_1.PNG","response":" ","trial_type":"image-keyboard-response","trial_index":40,"time_elapsed":28096,"internal_node_id":"0.0-40.0"},{"rt":187,"stimulus":"tutorial/task_familiarization_images/part 2/12_300_100_cliqueLeft_withFeedback_2.PNG","response":" ","trial_type":"image-keyboard-response","trial_index":41,"time_elapsed":28284,"internal_node_id":"0.0-41.0"},{"rt":421,"stimulus":"tutorial/task_familiarization_images/part 2/13_300_100_cliqueLeft_withFeedback_3.PNG","response":"arrowleft","trial_type":"image-keyboard-response","trial_index":42,"time_elapsed":28706,"internal_node_id":"0.0-42.0"},{"rt":203,"stimulus":"tutorial/task_familiarization_images/part 2/14_300_100_cliqueLeft_solution.PNG","response":" ","trial_type":"image-keyboard-response","trial_index":43,"time_elapsed":28909,"internal_node_id":"0.0-43.0"},{"rt":191,"stimulus":"tutorial/task_familiarization_images/part 2/15_300_100_cliqueLeft_correctAnswer.PNG","response":" ","trial_type":"image-keyboard-response","trial_index":44,"time_elapsed":29113,"internal_node_id":"0.0-44.0"},{"view_history":[{"page_index":0,"viewing_time":199}],"rt":199,"trial_type":"instructions","trial_index":45,"time_elapsed":29313,"internal_node_id":"0.0-45.0"},{"rt":992,"response":" ","nodesOrdering":[52,71,197,38,183,83,217,205,296,186,209,51,188,297,2,11,150,121,60,171,34,265,109,9,264,244,43,196,194,277,72,256,118,82,159,266,290,220,236,28,231,199,280,50,238,13,39,177,267,110,193,234,27,208,255,111,149,289,252,102,37,207,191,90,185,129,242,24,116,88,108,189,219,25,101,113,258,94,214,216,228,198,239,115,195,55,10,262,139,294,57,230,29,33,142,77,48,282,295,233,240,42,272,47,136,125,163,84,81,141,293,19,269,15,131,173,225,174,180,133,156,288,65,298,284,147,176,192,74,44,80,107,4,32,190,184,8,123,130,14,35,271,73,70,96,146,291,213,103,224,261,145,179,26,200,253,181,241,63,126,137,138,75,276,6,95,148,53,12,165,172,278,86,215,91,247,210,292,155,67,89,167,49,105,169,287,211,257,61,5,218,187,7,104,64,237,87,140,232,98,85,245,76,68,281,259,248,151,127,285,114,274,117,229,203,250,168,112,93,201,286,54,40,106,31,154,160,99,223,152,235,46,161,178,58,30,204,158,170,164,221,132,79,21,182,3,66,143,97,157,144,92,263,166,202,22,206,254,128,124,153,212,283,246,16,275,18,20,17,23,226,249,222,69,122,260,1,41,56,135,134,119,270,243,100,279,268,120,0,78,273,59,162,227,299,175,36,62,251,45],"cliqueSize":200,"correctResponse":"arrowright","presentationNumber":0,"trial_type":"canvas-keyboard-response","trial_index":46,"time_elapsed":30472,"internal_node_id":"0.0-46.0-0.0-0.0"},{"rt":700,"response":" ","nodesOrdering":[242,4,111,247,218,160,186,58,266,51,240,260,157,272,251,69,14,161,188,104,118,0,59,261,169,171,180,110,210,83,295,119,76,34,164,276,75,21,98,2,215,182,189,74,204,36,139,257,40,216,284,213,82,289,200,159,176,77,106,281,130,214,233,113,229,61,107,41,274,259,184,172,263,155,142,283,207,64,93,221,53,81,201,297,116,92,148,66,109,87,220,146,147,31,224,235,174,117,255,269,230,114,71,72,112,156,128,26,244,95,205,120,178,47,100,195,46,279,267,187,37,222,237,243,25,199,18,166,85,135,42,57,227,52,298,265,183,158,286,38,121,32,6,102,256,250,91,5,197,226,280,232,293,299,151,78,185,217,145,80,228,65,181,192,134,248,86,196,202,132,238,133,15,253,108,89,97,115,30,20,35,68,282,154,33,101,163,223,70,162,258,285,28,177,12,23,94,60,219,99,43,168,273,136,294,103,105,90,290,122,211,167,239,271,24,203,191,54,96,127,143,44,275,137,208,149,8,246,10,144,231,63,84,125,3,198,19,55,262,17,62,209,123,153,236,11,179,212,190,50,173,278,73,194,126,254,140,131,1,165,45,268,150,129,49,234,138,29,170,88,22,13,277,249,175,296,193,16,292,7,141,225,288,264,79,245,67,270,152,9,27,241,48,56,287,252,291,206,39,124],"cliqueSize":200,"correctResponse":"arrowright","presentationNumber":0,"trial_type":"canvas-keyboard-response","trial_index":47,"time_elapsed":31289,"internal_node_id":"0.0-46.1-0.1-0.1"},{"rt":552,"response":"arrowright","nodesOrdering":[33,178,50,69,35,262,42,173,144,60,206,56,23,2,275,260,24,177,283,207,238,259,271,129,57,184,216,86,255,293,235,76,248,101,124,183,185,258,135,288,52,169,137,280,198,285,168,163,191,40,227,71,134,32,151,212,123,175,105,82,154,25,4,18,113,139,217,282,96,97,145,119,167,253,229,218,99,13,298,219,192,152,48,201,196,165,254,65,108,27,8,68,128,91,179,231,279,190,233,161,146,155,156,63,16,159,265,88,12,241,80,230,215,115,287,239,277,89,143,281,189,37,132,202,95,182,79,236,242,278,205,172,62,103,225,73,28,164,70,39,87,176,92,220,106,125,9,261,244,120,232,195,158,237,251,136,22,59,116,171,6,199,208,53,5,77,138,228,264,19,75,1,226,148,131,11,81,257,291,20,296,0,160,109,147,133,51,200,197,26,222,153,249,269,41,118,274,117,141,55,286,93,36,194,30,299,266,90,187,85,72,17,7,188,193,110,31,174,150,130,245,297,294,210,180,243,223,114,74,140,263,46,121,295,14,45,122,247,272,107,252,83,10,149,94,234,34,250,214,209,170,221,43,61,240,64,84,162,15,256,49,66,67,284,142,126,213,38,166,29,290,21,246,112,104,58,224,273,111,267,127,98,102,78,54,211,289,276,47,44,3,270,203,292,268,157,204,100,181,186],"cliqueSize":200,"correctResponse":"arrowright","correctnessOfResponse":true,"presentationNumber":0,"trial_type":"canvas-keyboard-response","trial_index":48,"time_elapsed":31962,"internal_node_id":"0.0-46.2-0.2-0.2"},{"rt":770,"response":" ","nodesOrdering":[293,271,200,161,205,93,130,14,170,67,220,44,3,103,121,209,158,275,194,171,75,208,155,245,38,222,48,16,45,139,99,120,10,272,159,239,50,140,154,263,169,143,104,295,237,56,138,190,62,41,213,29,288,264,110,109,142,268,296,204,13,249,27,178,218,54,101,299,248,292,246,15,281,79,259,212,280,266,282,297,69,106,250,43,270,24,42,30,129,243,95,156,7,132,148,192,134,51,21,196,242,97,226,172,175,221,145,60,20,225,223,61,66,18,98,265,298,123,89,122,59,137,90,176,241,65,135,49,107,131,144,164,53,238,128,215,260,37,167,262,11,91,146,188,278,8,82,229,87,234,255,181,228,184,80,127,35,57,165,177,92,114,84,160,136,256,70,34,227,68,285,252,180,201,207,46,39,77,133,32,6,113,191,258,100,185,224,195,232,236,166,251,33,294,76,269,63,102,151,183,64,116,126,108,230,202,115,206,199,284,211,28,150,72,162,85,74,186,216,276,219,198,279,273,22,203,267,52,4,125,0,287,96,47,182,277,235,78,286,119,88,210,179,55,244,257,36,233,283,81,73,168,153,83,253,217,214,197,9,118,112,231,105,26,254,163,247,147,290,173,86,71,111,149,240,274,25,17,141,31,152,19,94,261,58,189,5,40,289,23,193,2,12,117,187,291,157,174,124,1],"cliqueSize":190,"correctResponse":"arrowright","presentationNumber":1,"trial_type":"canvas-keyboard-response","trial_index":49,"time_elapsed":32860,"internal_node_id":"0.0-47.0-0.0-0.0"},{"rt":456,"response":"arrowright","nodesOrdering":[150,137,93,250,219,50,288,169,284,85,242,237,229,94,140,276,111,221,166,197,165,236,96,161,12,259,84,190,264,214,155,28,97,3,186,128,192,261,131,21,5,40,291,153,37,204,24,177,200,90,145,170,246,207,65,171,251,244,290,42,211,212,13,36,139,199,243,79,10,203,287,67,116,14,277,2,23,209,126,144,183,218,62,263,89,270,296,255,175,68,49,22,20,95,173,294,124,213,91,46,109,63,108,268,142,130,9,198,205,35,87,41,273,33,208,92,174,70,106,179,134,201,282,114,6,143,222,272,181,47,196,44,53,54,74,151,75,66,118,64,254,123,38,191,45,295,58,245,115,298,121,16,168,297,285,215,286,31,59,100,274,187,32,149,27,8,238,228,182,283,122,69,249,185,158,176,154,257,76,138,112,25,267,83,220,73,232,29,61,202,235,34,271,141,104,148,281,163,120,188,103,86,101,195,167,189,223,146,105,72,225,266,15,234,132,160,233,262,252,133,279,247,30,82,253,172,152,162,119,256,226,51,136,206,269,102,210,159,52,48,231,18,275,60,56,258,292,77,164,113,240,216,98,178,117,88,1,125,193,194,280,78,135,293,224,278,157,248,227,99,55,217,156,0,147,107,299,80,180,110,17,239,127,71,57,43,4,230,11,7,129,184,241,260,39,81,26,19,265,289],"cliqueSize":190,"correctResponse":"arrowright","correctnessOfResponse":true,"presentationNumber":1,"trial_type":"canvas-keyboard-response","trial_index":50,"time_elapsed":33459,"internal_node_id":"0.0-47.1-0.1-0.1"},{"rt":716,"response":" ","nodesOrdering":[112,181,0,41,104,32,212,42,269,55,115,134,130,14,78,293,204,143,19,178,61,194,210,229,111,107,29,99,102,86,171,71,110,38,109,116,164,4,169,79,45,174,249,252,83,60,48,147,5,172,299,62,276,18,98,90,287,24,220,191,198,44,256,96,58,34,26,21,280,101,33,286,235,144,197,95,146,216,84,119,97,224,225,278,35,285,7,108,74,192,37,155,201,81,70,246,237,10,294,170,277,205,20,195,67,284,1,296,243,242,124,28,82,73,31,39,289,268,189,175,152,17,145,264,80,127,282,247,254,75,54,177,153,208,22,244,248,231,25,251,228,148,288,263,114,183,176,202,50,274,36,15,2,56,241,43,52,245,150,272,118,51,221,136,63,162,207,100,292,65,13,193,132,47,267,72,179,173,270,138,91,158,187,214,199,253,53,266,68,166,196,226,211,11,157,93,49,40,69,240,250,262,279,255,59,16,182,3,168,222,23,141,85,133,122,275,239,154,236,113,281,163,87,139,6,260,121,273,290,185,238,217,297,295,257,46,233,27,30,131,167,271,9,126,184,120,261,298,106,77,137,156,232,92,291,161,230,142,223,89,206,188,103,105,258,259,160,265,203,76,128,57,123,209,200,159,64,213,180,125,66,117,234,88,129,8,186,165,190,94,215,12,151,218,149,283,135,219,140,227],"cliqueSize":180,"correctResponse":"arrowleft","presentationNumber":2,"trial_type":"canvas-keyboard-response","trial_index":51,"time_elapsed":34305,"internal_node_id":"0.0-48.0-0.0-0.0"},{"rt":496,"response":"arrowleft","nodesOrdering":[208,177,274,201,242,52,73,223,31,237,200,255,275,137,146,220,268,276,229,225,141,153,20,116,5,203,63,173,0,33,231,57,235,150,167,13,163,217,66,34,17,117,266,79,3,47,87,128,65,259,16,97,127,189,74,196,250,115,147,135,38,269,96,109,248,158,61,299,90,23,228,194,280,244,156,105,132,59,119,258,272,2,46,181,55,36,58,184,81,247,227,273,175,103,236,214,253,126,78,124,11,298,37,246,179,89,284,221,15,21,76,155,294,12,29,60,202,10,222,243,39,218,83,292,91,120,286,282,239,139,279,251,293,53,125,42,291,68,230,136,174,140,94,240,75,162,285,48,216,215,114,152,143,28,234,134,70,98,171,252,27,165,182,254,296,123,24,205,133,241,148,51,104,44,164,233,180,95,18,161,267,281,288,185,14,32,168,238,9,191,85,169,245,210,219,226,92,261,142,129,157,192,289,99,206,41,1,278,257,186,35,6,30,86,121,207,80,295,270,190,7,71,8,82,77,183,106,151,72,213,154,204,297,22,131,198,287,111,112,262,49,159,102,40,56,249,263,130,211,260,166,26,199,277,176,209,84,170,25,100,108,88,283,178,145,43,271,118,193,122,265,144,45,4,67,107,138,160,113,197,64,69,290,224,212,19,195,256,101,149,188,232,264,172,54,50,62,110,93,187],"cliqueSize":180,"correctResponse":"arrowleft","correctnessOfResponse":true,"presentationNumber":2,"trial_type":"canvas-keyboard-response","trial_index":52,"time_elapsed":34919,"internal_node_id":"0.0-48.1-0.1-0.1"},{"rt":644,"response":"arrowleft","nodesOrdering":[26,138,40,224,205,144,235,86,43,250,121,141,66,14,118,206,48,72,46,104,265,67,199,150,54,200,172,163,93,113,244,155,245,210,264,212,184,89,28,262,137,251,22,170,88,25,177,107,207,174,36,33,53,191,91,7,171,231,37,32,42,203,61,76,151,254,247,62,116,283,98,277,125,268,287,228,110,182,90,147,158,124,192,24,243,58,84,85,56,82,285,261,143,278,260,156,175,290,57,119,176,188,218,255,209,35,94,108,83,30,291,297,5,161,198,180,195,246,197,146,1,132,23,99,295,131,115,223,0,129,270,214,70,92,281,193,59,236,103,259,47,152,166,204,74,41,294,273,106,38,55,114,16,80,52,289,227,145,51,19,6,133,272,225,257,102,100,69,73,87,140,27,256,10,135,267,183,232,202,216,263,78,126,63,181,215,271,44,148,49,18,105,239,68,127,237,112,219,81,77,280,220,8,21,242,97,139,208,79,230,296,34,252,276,178,282,213,31,288,241,120,128,101,275,189,64,65,179,279,9,117,284,130,75,185,165,266,240,217,142,248,229,292,293,95,13,233,96,222,160,201,164,169,71,159,274,11,162,15,45,187,12,238,60,39,196,111,157,234,190,194,168,29,249,299,17,122,221,134,136,123,109,298,20,167,149,3,186,269,154,258,211,253,50,2,153,226,4,173,286],"cliqueSize":170,"correctResponse":"arrowleft","correctnessOfResponse":true,"presentationNumber":3,"trial_type":"canvas-keyboard-response","trial_index":53,"time_elapsed":35700,"internal_node_id":"0.0-49.0-0.0-0.0"},{"rt":511,"response":" ","nodesOrdering":[11,64,293,134,98,200,266,46,49,116,143,231,275,166,123,81,188,168,148,215,10,51,16,112,19,277,220,232,118,213,298,245,80,9,268,61,100,158,175,40,272,226,104,63,171,142,271,105,43,279,183,174,126,120,284,2,219,242,24,187,66,204,128,236,162,113,218,229,273,165,85,136,243,34,156,124,278,267,110,14,107,202,95,155,121,55,72,54,222,269,59,294,141,130,163,145,179,26,68,290,239,258,170,228,108,88,91,169,182,117,67,111,56,297,27,60,176,70,282,48,254,185,181,255,195,20,216,296,257,249,6,260,157,15,109,47,198,150,139,74,265,160,225,206,211,194,31,125,41,276,79,227,263,21,75,32,180,1,280,177,93,131,154,45,256,235,178,207,52,205,149,234,217,73,237,36,224,135,57,212,30,247,151,172,184,138,201,240,189,152,119,7,83,132,0,99,13,5,129,270,241,233,25,90,190,248,246,89,146,281,144,82,288,53,209,86,221,191,289,244,140,17,115,192,159,38,299,97,62,274,96,287,71,28,44,196,84,37,203,4,39,286,69,101,87,102,214,186,238,78,58,94,251,35,283,173,122,42,208,3,164,33,23,29,259,292,193,161,285,127,114,252,223,253,291,147,230,65,76,22,199,106,50,18,103,210,133,8,262,295,92,197,77,167,137,12,261,250,264,153],"cliqueSize":160,"correctResponse":"arrowleft","presentationNumber":4,"trial_type":"canvas-keyboard-response","trial_index":54,"time_elapsed":36353,"internal_node_id":"0.0-50.0-0.0-0.0"},{"rt":423,"response":" ","nodesOrdering":[109,128,121,175,246,10,112,294,234,118,155,244,77,264,66,292,145,212,199,87,209,193,164,147,179,106,5,240,224,105,40,149,140,51,205,150,15,296,135,290,47,202,53,176,189,177,65,75,151,97,159,86,144,41,275,54,90,241,257,102,192,170,31,20,62,271,22,152,38,186,204,249,129,132,229,82,122,166,136,286,248,211,157,200,16,206,12,139,68,238,103,283,250,180,64,284,28,223,127,285,210,94,168,263,207,19,299,281,160,13,134,188,277,163,232,21,2,0,63,153,190,79,7,185,214,133,29,50,237,96,104,52,213,9,253,138,108,42,83,119,26,27,126,72,148,116,182,130,262,70,183,247,92,236,4,91,1,239,187,259,201,231,203,280,243,84,37,295,43,80,85,220,261,113,93,266,88,260,230,287,181,98,131,25,81,217,233,95,167,55,71,172,18,197,161,252,265,110,273,35,158,142,218,154,258,269,30,141,6,14,124,17,251,125,33,111,67,255,123,34,256,39,171,58,169,146,44,143,165,272,225,73,222,289,195,48,198,45,117,178,242,219,254,156,101,191,162,221,208,115,57,100,282,59,69,107,137,227,196,76,32,184,120,194,297,267,245,274,3,288,78,279,23,56,60,216,174,226,268,36,99,228,61,114,74,293,298,270,46,215,89,278,276,8,235,291,24,173,11,49],"cliqueSize":160,"correctResponse":"arrowleft","presentationNumber":4,"trial_type":"canvas-keyboard-response","trial_index":55,"time_elapsed":36902,"internal_node_id":"0.0-50.1-0.1-0.1"},{"rt":440,"response":"arrowleft","nodesOrdering":[279,260,257,170,155,188,210,174,22,197,112,214,293,158,171,254,66,1,237,41,149,53,144,295,173,243,175,275,185,0,113,132,152,200,145,153,282,84,231,87,183,176,297,270,194,27,156,165,266,33,6,235,238,98,11,64,123,154,31,265,48,18,262,212,182,78,130,272,159,88,43,162,108,248,199,143,191,294,229,20,46,278,5,164,146,292,234,23,45,34,97,36,274,104,240,131,101,56,189,151,246,80,59,58,236,134,50,276,209,70,69,114,139,51,81,127,57,3,245,233,255,7,72,230,103,4,166,241,37,247,106,119,206,261,83,39,107,42,167,157,256,160,110,49,96,180,221,284,94,213,244,133,268,25,187,115,138,198,239,224,122,73,223,291,192,299,296,28,116,148,75,168,79,2,259,181,290,86,76,91,118,9,16,186,92,8,250,93,219,35,161,264,10,82,226,271,269,169,205,253,178,232,111,203,15,126,281,90,222,109,201,218,65,26,85,47,135,280,196,17,217,141,287,120,67,184,140,14,193,258,121,190,211,102,273,13,24,286,283,195,163,215,249,227,19,71,267,204,172,89,147,63,150,137,62,77,99,216,288,129,228,252,29,117,60,32,30,298,68,289,142,61,202,242,74,54,40,95,100,263,277,225,220,251,128,285,124,207,179,208,177,12,136,52,44,38,21,105,125,55],"cliqueSize":160,"correctResponse":"arrowleft","correctnessOfResponse":true,"presentationNumber":4,"trial_type":"canvas-keyboard-response","trial_index":56,"time_elapsed":37463,"internal_node_id":"0.0-50.2-0.2-0.2"},{"rt":596,"response":" ","nodesOrdering":[193,294,177,284,39,58,1,276,135,44,215,173,265,283,219,98,114,213,183,16,293,291,187,60,113,270,189,169,69,242,119,75,184,217,81,230,289,229,258,282,112,231,260,30,200,95,176,252,108,158,8,186,78,48,225,61,272,64,141,80,32,159,204,7,223,124,21,85,254,106,86,267,17,197,92,151,156,120,40,117,157,26,140,280,261,41,91,36,162,127,286,55,203,132,12,9,72,43,275,290,144,221,103,190,57,250,298,0,208,25,237,83,185,20,244,100,88,240,136,11,174,89,59,295,110,15,188,172,165,130,137,109,247,181,79,33,287,269,232,234,82,236,139,143,198,123,142,167,49,23,146,299,111,46,179,271,3,235,264,150,93,94,245,155,128,256,102,285,182,259,211,27,266,238,277,5,19,4,292,121,178,22,253,251,214,152,171,37,6,77,296,255,216,52,51,71,226,161,163,62,149,274,209,297,164,31,122,34,224,14,133,63,262,138,220,38,42,99,104,212,35,24,227,76,97,73,45,205,257,2,228,202,196,18,192,263,116,87,153,201,175,131,170,288,273,241,279,248,148,126,168,281,101,129,233,65,105,268,96,13,180,246,107,249,70,194,84,115,154,54,218,47,195,74,239,10,243,145,160,278,207,50,67,199,56,206,118,166,53,222,191,134,28,66,210,68,125,90,29,147],"cliqueSize":150,"correctResponse":"arrowleft","presentationNumber":5,"trial_type":"canvas-keyboard-response","trial_index":57,"time_elapsed":38190,"internal_node_id":"0.0-51.0-0.0-0.0"},{"rt":500,"response":"arrowleft","nodesOrdering":[171,114,296,213,154,285,251,55,77,222,5,263,241,291,186,271,217,141,67,269,209,233,146,63,111,72,126,230,52,215,198,255,152,8,228,265,130,164,20,226,250,162,243,299,177,110,12,211,34,30,83,11,182,274,169,175,144,270,256,290,216,127,31,189,227,135,261,37,179,268,91,96,108,156,200,24,90,260,82,151,47,89,258,194,9,88,87,125,204,220,32,128,197,93,75,259,36,214,283,266,248,234,35,117,38,119,240,257,218,56,231,267,50,210,190,3,137,106,2,170,33,129,201,133,29,188,76,203,284,232,65,221,73,121,172,242,21,277,46,18,282,113,246,44,42,64,238,23,10,286,174,178,253,278,4,22,252,168,43,92,84,264,142,138,298,254,163,161,279,165,120,199,136,41,53,105,205,155,297,147,276,1,80,173,281,13,185,148,134,159,51,287,98,272,288,207,45,295,122,244,78,219,102,294,103,60,54,118,15,143,273,150,166,7,27,124,99,49,101,69,85,115,158,95,289,157,245,193,140,167,184,39,100,160,262,6,224,293,79,176,116,0,66,247,249,62,181,131,206,48,280,239,97,25,145,191,229,68,16,149,28,237,70,26,236,112,104,187,74,183,225,139,19,57,153,235,109,202,107,212,81,123,86,132,40,275,61,192,14,196,180,195,71,17,223,208,59,94,58,292],"cliqueSize":150,"correctResponse":"arrowleft","correctnessOfResponse":true,"presentationNumber":5,"trial_type":"canvas-keyboard-response","trial_index":58,"time_elapsed":38810,"internal_node_id":"0.0-51.1-0.1-0.1"},{"rt":570,"response":"arrowleft","nodesOrdering":[139,129,207,55,92,79,264,133,187,252,43,293,27,270,171,248,1,5,284,65,159,220,47,128,298,261,94,224,54,178,200,32,289,81,219,209,215,95,143,99,135,225,34,269,76,286,217,172,67,155,232,19,265,137,15,16,101,255,190,18,142,60,170,239,74,145,279,44,121,62,245,118,90,288,24,103,131,177,241,84,6,278,227,61,148,114,257,230,234,38,149,100,229,10,238,53,198,262,120,182,233,151,56,154,52,160,125,28,175,231,185,221,93,64,259,195,271,166,254,115,153,83,194,136,156,290,240,108,49,40,169,112,203,147,280,75,146,73,3,23,17,105,206,36,111,2,4,292,180,59,192,295,189,150,14,179,218,57,277,243,163,127,287,58,33,276,247,122,263,235,201,77,246,223,260,96,208,26,168,253,244,197,299,117,66,212,202,85,46,249,106,87,291,20,86,174,138,37,97,30,164,165,98,126,205,39,193,48,41,162,281,285,226,204,176,273,0,173,297,71,250,267,237,8,104,80,70,196,107,31,50,42,116,45,274,89,272,294,63,199,211,191,258,11,242,181,72,21,78,214,91,144,123,51,9,12,140,7,113,102,283,88,296,213,157,184,256,69,186,68,183,25,268,132,119,152,158,110,266,216,130,29,124,167,222,35,109,134,13,251,282,210,275,22,141,236,188,161,228,82],"cliqueSize":140,"correctResponse":"arrowright","correctnessOfResponse":false,"presentationNumber":6,"trial_type":"canvas-keyboard-response","trial_index":59,"time_elapsed":39501,"internal_node_id":"0.0-52.0-0.0-0.0"},{"rt":663,"response":"arrowright","nodesOrdering":[289,174,129,43,178,16,243,265,38,258,109,137,177,203,71,278,166,85,112,49,242,227,36,15,254,86,190,53,52,173,144,118,69,202,263,199,121,106,103,146,62,6,8,240,70,187,181,274,161,21,28,299,296,65,176,160,290,30,24,67,249,26,291,102,233,238,126,255,45,113,114,262,246,259,231,217,221,12,261,68,55,270,39,79,42,180,152,110,194,100,142,73,63,33,235,138,40,169,209,286,196,115,198,94,225,165,250,234,155,124,277,244,76,108,197,107,123,183,83,295,47,75,50,229,298,99,60,66,201,120,212,143,128,276,59,204,158,74,293,186,185,224,147,282,131,269,91,136,200,248,279,84,208,213,132,133,245,64,287,7,252,97,220,44,95,192,82,125,272,77,127,98,88,273,105,172,268,35,211,31,58,41,140,257,236,171,119,20,206,80,219,150,281,283,232,51,3,48,139,9,237,11,170,285,92,260,288,46,297,149,167,179,37,32,116,226,101,189,89,145,230,54,1,207,4,135,193,164,56,210,292,117,156,294,29,134,122,27,223,34,0,188,57,162,157,154,130,61,215,90,216,148,18,241,182,267,184,96,17,23,280,2,195,175,284,214,253,228,247,19,72,271,264,93,251,10,218,239,13,14,87,222,159,141,275,22,168,25,205,111,266,256,191,78,104,163,81,5,151,153],"cliqueSize":130,"correctResponse":"arrowleft","correctnessOfResponse":false,"presentationNumber":7,"trial_type":"canvas-keyboard-response","trial_index":60,"time_elapsed":40290,"internal_node_id":"0.0-53.0-0.0-0.0"},{"rt":584,"response":"arrowleft","nodesOrdering":[154,159,260,245,89,31,50,179,186,7,34,53,250,81,101,238,24,33,287,227,279,289,146,108,12,288,132,217,216,64,71,93,203,166,190,228,147,189,272,268,241,83,165,62,110,276,180,143,28,294,158,225,172,275,164,92,226,167,181,54,2,11,187,170,171,43,84,16,258,242,152,121,111,105,185,120,232,192,14,1,137,274,262,79,202,125,3,174,119,243,247,161,68,127,5,6,32,240,201,234,113,128,213,115,299,235,205,10,49,30,215,252,196,222,280,58,73,193,109,74,162,265,282,40,194,257,286,295,72,264,218,255,236,4,42,220,177,208,270,44,141,87,292,197,138,19,46,160,124,148,97,267,9,223,211,266,56,131,209,95,36,214,239,269,8,168,55,98,61,130,224,284,18,249,221,102,112,52,90,82,96,75,253,273,198,80,103,283,39,271,278,207,116,231,66,298,17,37,122,15,51,169,60,246,114,244,145,199,188,144,254,248,182,212,150,163,237,26,230,41,99,21,139,129,291,133,45,76,173,293,67,195,206,191,106,104,155,22,281,157,136,156,277,204,175,85,63,88,38,27,229,13,25,261,178,70,297,285,259,77,107,256,200,23,94,65,134,117,118,219,296,86,35,184,91,149,0,263,20,290,29,57,153,78,142,47,126,140,176,100,210,151,183,233,251,135,59,123,48,69],"cliqueSize":120,"correctResponse":"arrowleft","correctnessOfResponse":true,"presentationNumber":8,"trial_type":"canvas-keyboard-response","trial_index":61,"time_elapsed":40993,"internal_node_id":"0.0-54.0-0.0-0.0"},{"rt":571,"response":"arrowleft","nodesOrdering":[244,226,191,86,194,64,21,34,233,234,293,295,98,117,122,33,265,248,264,18,13,140,209,283,210,73,182,44,128,279,266,11,193,20,56,80,69,19,243,155,286,8,270,92,116,259,142,149,208,46,50,249,131,94,285,62,224,153,123,171,132,6,156,10,57,148,166,238,29,204,167,85,133,147,245,4,177,237,212,135,277,112,262,15,225,120,36,49,176,275,137,260,183,289,211,269,95,139,202,55,84,12,218,2,52,37,27,181,103,16,207,284,108,48,89,257,101,32,190,151,299,0,196,205,186,71,195,261,268,180,271,114,107,23,96,169,65,223,60,287,232,25,241,227,124,144,230,28,276,59,252,215,43,219,113,17,281,121,197,154,291,40,42,91,298,127,162,24,7,246,251,163,254,178,126,70,45,100,228,99,146,129,288,41,47,184,35,136,145,272,168,102,61,296,294,130,67,236,5,240,247,53,93,231,203,150,54,253,220,201,30,78,172,297,110,159,256,3,22,217,214,90,106,160,97,189,216,242,58,39,179,79,152,278,161,109,200,14,239,213,119,88,26,1,9,104,175,206,157,111,75,188,258,82,138,74,267,250,141,174,63,170,125,221,72,81,51,158,118,198,282,66,292,187,280,115,255,199,222,134,229,76,235,143,290,31,192,87,274,164,173,105,38,77,263,83,68,165,185,273],"cliqueSize":110,"correctResponse":"arrowleft","correctnessOfResponse":true,"presentationNumber":9,"trial_type":"canvas-keyboard-response","trial_index":62,"time_elapsed":41686,"internal_node_id":"0.0-55.0-0.0-0.0"},{"rt":1862,"response":"arrowleft","nodesOrdering":[153,151,256,242,282,125,69,230,180,97,184,29,266,217,186,272,148,62,25,109,237,164,254,98,210,238,127,47,14,28,190,134,74,38,116,51,209,59,289,140,260,44,295,268,19,221,34,177,222,150,2,138,0,5,110,211,276,263,241,178,248,207,162,253,9,6,252,267,133,61,297,119,158,102,166,20,85,78,26,55,136,236,262,294,80,73,234,232,12,291,135,278,106,246,244,284,165,145,87,70,279,204,275,156,258,57,283,89,107,108,155,206,21,287,224,144,113,173,292,115,83,101,79,271,65,117,50,152,218,172,181,233,239,146,32,99,149,240,175,121,185,35,227,54,132,296,118,86,281,129,82,45,245,49,30,168,229,4,257,188,40,60,228,15,91,194,39,202,11,36,250,197,154,17,215,189,147,63,8,203,23,84,269,52,13,64,75,201,92,255,37,105,274,243,170,193,205,114,196,122,120,33,103,259,10,123,77,198,141,66,24,298,72,71,192,174,249,277,223,183,219,157,128,126,53,3,286,1,96,220,273,261,160,200,195,56,299,187,213,179,280,90,139,163,214,31,285,225,94,159,76,41,131,16,143,293,7,216,212,182,161,81,265,48,58,124,42,191,22,235,288,111,137,171,95,68,264,251,142,226,130,290,169,18,176,112,208,247,27,46,67,43,231,93,88,104,167,199,270,100],"cliqueSize":100,"correctResponse":"arrowleft","correctnessOfResponse":true,"presentationNumber":10,"trial_type":"canvas-keyboard-response","trial_index":63,"time_elapsed":43668,"internal_node_id":"0.0-56.0-0.0-0.0"},{"rt":1036,"response":"arrowleft","nodesOrdering":[98,237,201,173,217,224,127,190,130,102,204,87,207,60,7,103,284,27,26,144,228,281,289,29,231,271,200,116,5,35,181,22,253,121,146,188,282,196,290,55,16,75,278,184,101,79,174,247,111,67,140,63,169,258,91,248,206,164,160,293,74,176,0,285,193,279,106,141,151,227,260,287,246,150,65,1,137,199,251,21,11,14,229,230,255,39,185,198,93,42,269,203,277,64,182,168,280,178,215,99,238,294,125,163,62,152,256,51,288,44,134,80,77,96,171,41,159,157,48,272,232,226,3,154,46,19,112,54,107,274,138,250,264,94,192,49,133,72,69,33,245,45,299,186,236,118,129,143,139,52,97,233,122,162,268,82,90,263,114,179,273,4,32,265,17,194,132,276,84,76,13,120,165,9,195,73,177,222,187,197,78,259,36,2,66,70,153,218,291,10,81,156,213,220,147,261,211,249,216,202,53,254,28,210,175,104,145,189,6,270,109,89,20,24,8,126,166,136,113,47,214,257,37,148,241,34,88,59,92,239,225,180,244,298,296,108,252,68,15,43,221,30,158,267,119,266,172,123,23,286,95,275,131,128,61,208,18,240,170,31,205,124,283,57,191,117,40,292,135,86,183,110,105,25,262,56,223,12,242,85,155,71,243,149,212,50,167,115,234,58,100,161,219,235,209,297,38,142,295,83],"cliqueSize":90,"correctResponse":"arrowleft","correctnessOfResponse":true,"presentationNumber":11,"trial_type":"canvas-keyboard-response","trial_index":64,"time_elapsed":44824,"internal_node_id":"0.0-57.0-0.0-0.0"},{"rt":1081,"response":"arrowright","nodesOrdering":[192,17,4,292,295,264,191,219,169,55,184,95,274,211,293,127,1,18,176,20,136,203,296,0,269,105,75,260,42,45,154,25,63,250,74,88,202,185,299,273,22,79,257,207,53,141,60,286,122,247,148,82,80,180,236,52,132,59,54,241,177,138,263,70,49,194,276,197,131,34,165,195,139,130,209,212,69,163,78,226,135,35,281,155,36,5,8,68,93,39,107,110,108,259,85,265,290,144,193,137,123,150,128,31,240,100,44,94,183,164,116,3,81,251,159,40,172,23,97,76,143,246,288,228,287,134,181,222,21,16,189,133,90,15,37,129,102,24,46,87,234,267,271,206,162,117,157,242,152,92,65,178,62,161,11,213,147,84,57,115,190,73,187,167,282,26,285,215,72,121,173,220,51,86,47,120,272,252,248,66,284,103,278,56,112,96,114,186,262,106,19,289,277,58,245,99,166,149,43,232,188,224,235,140,101,283,275,33,156,111,109,254,61,217,174,64,253,29,223,238,298,104,261,126,124,6,255,32,198,196,77,170,12,7,50,142,216,158,249,48,256,210,98,214,14,175,233,151,294,230,2,83,268,229,280,125,205,89,41,225,182,13,168,221,91,145,244,30,279,28,9,237,71,199,200,201,258,243,160,67,208,113,231,239,266,297,119,204,146,118,291,153,38,10,179,27,270,227,171,218],"cliqueSize":80,"correctResponse":"arrowright","correctnessOfResponse":true,"presentationNumber":12,"trial_type":"canvas-keyboard-response","trial_index":65,"time_elapsed":46028,"internal_node_id":"0.0-58.0-0.0-0.0"},{"rt":1143,"response":"arrowright","nodesOrdering":[119,235,293,164,288,208,228,184,222,194,141,42,252,271,206,269,76,84,81,217,2,133,14,253,134,7,203,43,16,152,158,188,12,24,116,131,113,223,285,245,246,135,244,48,68,204,163,35,17,112,251,50,231,74,55,199,80,276,114,169,31,127,122,78,265,57,15,27,159,121,97,168,260,239,150,156,142,186,264,8,266,297,205,286,181,72,136,274,21,54,107,10,58,201,3,233,125,38,259,256,236,11,118,248,1,173,115,44,185,195,96,213,247,61,281,23,9,232,191,167,92,273,258,227,175,192,249,6,87,49,120,66,225,69,34,215,177,111,83,149,216,91,287,283,37,254,104,180,237,18,193,62,51,298,230,39,178,26,212,197,174,207,179,182,267,187,157,126,144,221,128,33,160,278,64,240,209,60,218,52,138,294,268,106,67,272,130,75,110,129,20,46,153,70,123,170,0,4,295,19,89,234,56,77,261,190,82,65,183,241,292,165,198,284,176,200,94,270,99,255,90,162,45,143,53,219,29,93,172,211,224,189,105,28,214,22,102,277,291,148,13,47,137,166,289,86,151,210,171,124,109,220,101,202,100,145,226,40,95,257,59,32,279,282,263,73,250,41,139,242,290,88,117,63,85,155,229,275,30,262,103,36,154,243,296,140,79,25,5,98,196,146,132,299,238,280,147,71,108,161],"cliqueSize":70,"correctResponse":"arrowright","correctnessOfResponse":true,"presentationNumber":13,"trial_type":"canvas-keyboard-response","trial_index":66,"time_elapsed":47288,"internal_node_id":"0.0-59.0-0.0-0.0"},{"rt":603,"response":" ","nodesOrdering":[26,277,240,218,11,258,31,168,178,239,104,87,165,37,63,147,64,136,235,103,15,225,120,56,101,94,102,246,237,79,254,291,54,274,176,134,145,280,159,67,129,161,99,201,13,40,275,265,208,10,3,253,243,114,171,195,71,259,89,4,78,131,294,154,43,28,222,219,183,0,196,189,244,45,109,200,73,2,232,205,18,286,148,33,123,95,209,198,124,242,117,266,52,46,236,160,226,66,138,228,90,29,166,231,157,39,27,155,172,162,107,282,264,193,223,106,287,8,213,49,221,234,216,164,220,207,229,299,249,59,116,125,180,21,270,296,88,135,224,150,92,128,50,297,174,60,110,68,143,81,57,12,262,118,100,202,283,292,233,86,179,19,42,227,158,288,25,194,152,252,298,263,80,289,210,167,170,6,44,278,98,23,121,290,65,47,113,175,9,149,36,83,22,181,203,146,250,169,192,16,32,190,53,34,184,142,105,163,70,273,91,276,186,30,77,48,132,97,55,267,127,84,173,93,62,285,177,188,217,51,238,204,272,119,255,187,261,24,74,257,251,38,41,241,96,115,85,72,58,281,182,185,260,82,214,111,199,245,153,279,7,141,126,130,1,122,284,206,144,5,212,211,197,35,230,76,151,271,156,61,191,20,256,247,269,248,137,293,133,295,140,14,17,139,75,112,108,215,268,69],"cliqueSize":60,"correctResponse":"arrowright","presentationNumber":14,"trial_type":"canvas-keyboard-response","trial_index":67,"time_elapsed":48013,"internal_node_id":"0.0-60.0-0.0-0.0"},{"rt":515,"response":" ","nodesOrdering":[112,85,227,53,91,277,184,7,104,48,230,38,273,117,11,218,66,132,42,3,147,203,103,82,161,286,195,172,294,5,115,174,73,54,50,93,171,128,149,298,206,283,79,130,179,95,214,263,70,198,75,87,76,191,275,45,270,235,30,282,17,31,138,127,238,224,297,278,252,264,245,170,243,216,207,68,189,162,182,228,185,121,187,78,67,114,253,200,265,12,144,164,215,58,154,123,166,241,157,268,248,242,19,295,194,260,145,280,0,205,223,190,90,221,35,177,188,26,28,259,256,94,24,208,21,23,293,32,211,101,98,143,232,43,165,158,113,49,290,25,173,84,236,151,142,110,131,204,160,148,202,234,163,89,62,287,47,155,46,118,111,251,129,22,183,210,266,2,209,77,153,222,124,201,39,15,296,250,292,226,37,105,4,212,81,100,229,134,289,233,199,119,1,71,197,14,281,217,274,107,106,240,109,40,41,63,156,192,231,97,133,246,34,29,36,276,80,102,269,262,146,261,181,239,284,51,249,64,120,186,99,279,57,16,59,141,122,10,176,86,271,126,96,9,178,267,136,213,27,196,116,193,150,258,8,180,247,288,244,219,6,152,139,225,60,272,74,140,285,13,291,69,237,220,257,18,55,20,169,167,65,168,159,255,72,33,175,254,108,92,44,88,61,56,125,299,83,135,52,137],"cliqueSize":60,"correctResponse":"arrowright","presentationNumber":14,"trial_type":"canvas-keyboard-response","trial_index":68,"time_elapsed":48648,"internal_node_id":"0.0-60.1-0.1-0.1"},{"rt":538,"response":" ","nodesOrdering":[291,15,43,299,205,279,288,112,51,263,138,104,254,80,91,46,185,244,204,159,96,209,25,109,45,76,42,99,180,216,242,64,184,250,111,202,237,197,23,143,287,225,183,298,71,245,40,188,48,98,81,110,8,208,57,160,124,30,195,158,72,153,22,252,142,14,41,118,187,283,4,217,220,121,152,235,63,140,147,105,77,219,234,144,136,33,139,154,289,259,102,290,52,79,194,255,67,211,267,207,7,29,123,221,223,174,13,232,21,120,285,84,191,293,73,169,182,181,273,243,240,58,172,282,66,198,90,155,27,89,241,228,119,196,53,190,199,262,133,192,68,103,274,165,266,265,269,61,173,101,75,88,261,189,6,59,125,218,47,130,93,32,162,248,175,276,206,2,214,270,230,177,100,193,278,78,132,12,157,20,148,39,149,94,95,163,201,239,10,108,295,141,156,97,256,128,131,82,168,26,284,277,268,150,264,17,236,36,129,281,200,247,38,258,212,74,246,87,34,167,18,176,233,65,272,16,115,5,106,24,113,116,238,231,1,56,271,92,179,280,260,166,85,3,253,137,171,292,135,50,62,49,19,37,151,178,227,229,107,297,224,60,86,203,170,69,83,226,0,44,9,145,122,213,28,126,210,11,161,275,251,186,127,146,215,35,54,134,296,55,249,31,222,257,286,294,114,70,164,117],"cliqueSize":60,"correctResponse":"arrowright","presentationNumber":14,"trial_type":"canvas-keyboard-response","trial_index":69,"time_elapsed":49305,"internal_node_id":"0.0-60.2-0.2-0.2"},{"rt":488,"response":" ","nodesOrdering":[0,11,129,260,163,125,221,66,291,274,113,164,1,219,84,265,278,94,226,246,99,155,169,86,100,2,110,214,239,206,104,92,20,79,280,171,117,123,202,44,54,272,121,257,233,248,65,220,111,30,91,62,154,93,147,77,174,192,292,23,33,87,127,144,166,251,297,193,177,119,103,112,101,75,201,142,114,282,285,243,80,72,81,28,161,266,57,50,264,191,250,25,158,42,262,97,222,238,232,26,283,140,211,105,156,90,273,16,19,244,107,276,165,96,130,299,131,162,189,231,290,21,52,49,227,70,230,200,13,46,247,197,241,224,14,277,204,151,182,17,228,209,64,284,263,136,35,98,55,134,196,60,180,22,225,88,41,190,215,116,179,249,73,270,78,10,199,160,5,128,139,45,141,181,48,34,279,198,153,170,53,106,298,109,254,8,188,245,207,172,184,40,133,168,237,124,235,83,68,4,186,281,102,146,255,242,234,194,7,176,145,58,217,32,267,9,208,149,118,288,29,229,148,36,289,39,183,132,37,43,240,85,294,150,67,269,259,61,223,236,187,137,195,120,95,24,15,205,253,287,258,152,63,216,51,159,261,138,218,31,143,213,3,271,173,38,256,69,212,6,135,122,82,108,76,203,185,157,295,268,115,18,56,12,275,286,252,74,126,27,89,210,71,293,178,175,59,296,167,47],"cliqueSize":60,"correctResponse":"arrowright","presentationNumber":14,"trial_type":"canvas-keyboard-response","trial_index":70,"time_elapsed":49931,"internal_node_id":"0.0-60.3-0.3-0.3"},{"rt":512,"response":"arrowright","nodesOrdering":[209,227,164,13,111,123,197,221,238,129,165,185,39,138,154,147,223,240,112,95,213,249,22,90,290,267,232,104,37,73,148,125,163,7,34,115,93,21,175,230,285,142,71,191,145,190,237,277,128,150,88,121,96,14,140,173,102,69,156,292,50,106,70,255,260,205,6,114,217,52,233,172,200,166,220,2,117,247,48,143,126,208,258,193,38,5,235,135,298,203,153,137,259,77,59,279,291,136,158,231,243,24,239,189,113,84,17,83,25,94,55,91,278,64,29,236,206,56,1,192,30,4,170,58,261,171,97,72,134,280,28,284,144,85,19,250,89,149,131,101,198,271,23,212,65,12,178,18,270,251,100,76,31,80,288,160,161,293,265,157,57,78,81,133,174,281,26,211,139,224,182,98,214,162,199,181,110,180,42,219,196,45,264,35,210,262,120,155,3,105,67,268,286,99,241,168,256,194,176,20,10,252,188,204,275,11,32,116,41,51,118,75,229,54,87,289,146,47,216,124,132,74,40,68,62,297,16,263,266,169,187,159,295,0,254,179,27,130,141,272,82,167,299,269,276,228,8,183,294,44,242,127,49,245,253,225,43,244,177,282,108,257,53,122,234,61,287,274,215,109,103,15,222,246,60,201,92,202,186,9,46,79,107,226,195,63,296,86,207,218,248,33,273,152,283,36,119,151,66,184],"cliqueSize":60,"correctResponse":"arrowright","correctnessOfResponse":true,"presentationNumber":14,"trial_type":"canvas-keyboard-response","trial_index":71,"time_elapsed":50561,"internal_node_id":"0.0-60.4-0.4-0.4"},{"rt":547,"response":" ","nodesOrdering":[66,131,265,291,100,215,129,204,279,183,137,60,138,116,177,144,299,114,105,52,91,54,175,239,86,256,109,136,76,267,229,277,149,297,120,98,96,31,163,186,81,90,237,188,201,37,284,145,255,75,77,140,8,240,1,268,259,273,78,246,123,62,83,295,272,110,156,68,127,130,82,14,59,218,172,193,89,93,269,135,290,155,99,257,23,161,119,253,206,190,27,203,2,261,173,46,38,102,294,53,181,238,108,29,79,51,199,141,192,142,32,42,180,160,143,118,216,36,285,178,162,6,128,165,276,112,69,63,254,45,196,30,20,87,146,134,21,113,158,296,166,132,22,223,139,7,92,124,95,230,262,0,11,25,26,189,126,19,88,209,150,282,94,40,220,247,184,289,33,73,159,200,244,16,97,147,107,61,207,212,35,47,84,125,49,243,168,4,152,44,169,222,171,133,71,236,214,241,57,227,263,211,10,121,219,157,153,122,64,67,101,226,286,58,198,15,233,185,9,278,24,194,154,179,292,298,5,111,249,74,176,208,148,43,170,202,287,231,232,65,191,248,164,50,260,70,271,39,41,274,56,34,266,228,187,174,104,288,293,251,28,117,242,213,283,115,210,85,245,151,3,270,106,225,281,12,252,275,234,103,167,250,18,182,195,217,197,264,48,13,235,221,17,72,258,205,80,55,280,224],"cliqueSize":50,"correctResponse":"arrowleft","presentationNumber":15,"trial_type":"canvas-keyboard-response","trial_index":72,"time_elapsed":51225,"internal_node_id":"0.0-61.0-0.0-0.0"},{"rt":507,"response":" ","nodesOrdering":[2,49,28,297,150,41,205,20,210,263,253,283,54,223,110,211,292,181,191,256,129,86,139,46,157,194,235,224,31,237,293,240,84,4,6,45,164,9,66,246,175,221,30,279,166,114,274,295,143,98,230,149,268,188,126,214,186,99,105,122,286,228,252,12,56,255,154,69,83,165,33,140,245,136,15,77,233,74,222,215,138,39,130,216,281,193,8,112,172,285,37,152,115,57,10,151,133,294,44,209,32,196,76,21,267,238,90,155,147,153,0,85,91,16,73,264,288,257,35,231,178,67,189,225,108,236,48,103,132,11,63,145,134,162,78,176,290,87,137,192,258,212,38,118,60,102,111,80,61,142,55,95,262,247,125,75,36,277,116,64,174,106,160,291,298,190,199,119,42,259,26,13,65,14,251,23,25,241,131,96,289,101,123,261,163,207,18,148,169,135,141,70,185,217,197,124,278,17,50,97,40,120,1,234,24,232,272,89,250,52,34,159,156,62,183,27,195,220,296,170,203,58,202,72,208,184,71,229,128,226,282,201,287,239,198,53,273,79,104,100,179,218,29,177,81,249,158,244,299,254,243,213,260,265,271,173,200,248,167,227,275,280,94,92,206,68,22,7,82,187,276,43,5,144,107,270,219,3,88,117,269,242,51,113,109,168,127,204,266,180,161,171,47,19,284,93,121,59,182,146],"cliqueSize":50,"correctResponse":"arrowleft","presentationNumber":15,"trial_type":"canvas-keyboard-response","trial_index":73,"time_elapsed":51870,"internal_node_id":"0.0-61.1-0.1-0.1"},{"rt":376,"response":" ","nodesOrdering":[196,239,259,249,154,120,292,286,129,234,68,217,187,18,24,37,83,128,282,8,143,123,183,228,66,252,111,78,20,176,1,55,94,285,180,209,236,195,256,137,136,16,98,222,39,2,42,102,97,135,213,146,172,269,289,117,133,153,190,223,114,247,294,205,144,124,103,229,29,5,56,207,206,28,287,254,119,101,15,115,233,231,77,298,88,91,191,142,50,192,179,241,242,32,21,227,14,127,293,288,199,53,164,152,263,52,17,181,86,134,3,82,100,275,148,214,92,156,159,95,49,284,170,258,244,33,202,194,9,99,139,267,211,149,58,251,173,64,182,165,240,203,11,132,197,151,75,74,162,160,70,273,121,297,212,201,27,13,178,45,210,113,248,138,87,264,107,41,51,296,84,79,110,158,168,220,157,63,193,271,31,261,253,155,281,175,150,40,255,125,274,43,23,171,65,291,147,235,47,245,216,189,177,67,109,108,106,188,54,130,141,12,230,62,265,163,90,36,73,262,116,268,19,72,184,238,161,4,246,277,295,30,34,76,35,96,278,6,44,243,140,89,48,266,219,257,279,25,272,71,7,226,104,221,69,57,250,237,174,208,270,200,290,105,0,186,299,260,283,93,218,59,60,145,169,85,167,185,204,126,10,224,122,38,131,166,276,81,22,80,225,232,112,118,198,215,46,280,61,26],"cliqueSize":50,"correctResponse":"arrowleft","presentationNumber":15,"trial_type":"canvas-keyboard-response","trial_index":74,"time_elapsed":52397,"internal_node_id":"0.0-61.2-0.2-0.2"},{"rt":422,"response":" ","nodesOrdering":[216,258,210,222,219,289,217,18,282,192,128,73,7,198,47,28,39,266,111,180,153,172,32,271,147,83,113,139,143,263,234,149,205,145,230,40,59,92,228,121,30,96,100,201,235,91,295,247,35,171,85,98,165,243,89,52,265,97,101,288,64,156,159,49,254,270,214,34,286,231,182,3,116,248,225,213,241,151,189,294,194,93,275,150,58,236,221,45,287,175,137,23,268,61,291,168,86,103,190,152,20,200,157,79,76,106,14,0,218,158,62,215,75,41,170,195,46,25,167,166,31,261,252,129,267,255,245,246,283,63,154,11,65,232,259,169,119,188,277,51,279,250,55,206,122,10,15,1,9,187,37,70,285,160,108,87,115,161,278,177,197,211,71,155,99,42,105,142,262,204,74,4,181,193,191,183,33,125,276,186,233,220,27,123,57,290,256,244,135,144,127,272,78,148,22,48,117,13,134,12,104,239,264,249,53,17,207,130,56,133,199,50,26,273,280,120,253,131,88,174,72,292,242,95,269,114,185,173,209,80,274,251,5,69,124,240,6,208,293,24,299,237,212,179,8,90,223,260,126,281,229,43,60,227,162,296,140,54,110,84,136,163,109,77,44,82,81,36,29,19,196,202,238,102,203,257,112,94,146,141,178,16,298,38,132,184,176,107,224,226,297,284,67,66,118,68,138,21,2,164],"cliqueSize":50,"correctResponse":"arrowleft","presentationNumber":15,"trial_type":"canvas-keyboard-response","trial_index":75,"time_elapsed":52986,"internal_node_id":"0.0-61.3-0.3-0.3"},{"rt":416,"response":" ","nodesOrdering":[43,135,125,112,38,30,195,184,264,3,142,227,250,98,256,275,223,26,182,233,48,83,93,295,49,284,293,163,114,268,44,183,10,35,133,46,242,160,283,20,257,154,187,185,260,221,201,123,155,258,299,270,102,169,246,181,40,151,198,42,119,47,196,217,145,153,146,24,255,265,179,53,23,249,118,269,281,138,178,174,14,170,212,86,271,290,77,197,222,45,230,94,27,219,141,159,292,6,56,116,99,18,289,130,193,111,261,294,4,131,161,288,177,226,9,175,80,2,144,213,180,82,164,273,108,139,238,19,189,152,208,216,192,0,60,129,291,39,254,91,259,262,202,285,199,280,204,229,87,75,76,149,69,78,62,79,15,89,28,36,120,167,72,203,136,74,61,287,140,251,171,205,156,8,97,263,224,210,282,107,17,88,225,165,32,272,96,1,104,70,245,143,148,21,13,277,278,51,115,218,186,22,267,274,188,64,157,122,172,37,241,228,231,7,121,73,110,279,147,12,248,84,296,266,214,109,58,243,194,235,244,68,220,137,200,240,52,209,41,81,253,103,211,173,237,168,63,106,134,66,126,298,67,16,207,124,158,85,95,105,34,90,29,236,113,5,59,239,276,128,162,55,25,176,33,50,215,190,101,71,132,191,100,65,286,54,127,232,206,117,252,92,11,234,247,57,31,297,150,166],"cliqueSize":50,"correctResponse":"arrowleft","presentationNumber":15,"trial_type":"canvas-keyboard-response","trial_index":76,"time_elapsed":53594,"internal_node_id":"0.0-61.4-0.4-0.4"},{"rt":438,"response":" ","nodesOrdering":[81,110,218,120,274,67,237,271,195,141,175,101,151,250,75,11,76,253,124,65,21,199,44,231,19,128,171,156,8,90,277,87,153,47,243,161,121,77,267,98,262,299,188,192,7,42,152,286,64,201,198,289,116,193,190,298,211,12,279,214,284,275,163,294,217,85,236,71,104,176,70,182,23,69,54,137,140,56,269,169,184,245,86,282,27,226,109,35,164,185,235,102,82,97,5,84,100,36,258,58,94,37,103,59,93,57,28,293,181,288,34,132,150,112,72,4,186,55,259,107,233,205,187,73,207,165,257,125,210,145,254,285,2,131,22,264,228,296,30,155,227,111,139,0,266,206,13,1,31,220,283,129,263,15,114,256,83,26,49,50,222,268,144,216,99,122,241,63,157,60,240,96,170,255,261,45,68,270,174,212,123,287,148,167,118,9,95,117,18,234,48,179,17,105,10,78,149,135,180,248,127,147,133,159,191,230,138,92,213,162,51,136,203,115,280,249,14,223,32,172,244,108,292,252,278,80,89,183,247,204,208,130,189,66,106,273,62,146,238,46,126,219,113,79,290,260,61,242,143,3,272,246,52,20,168,194,53,276,295,265,215,178,200,119,225,251,74,134,196,239,281,291,202,41,177,297,25,38,224,221,154,33,229,160,158,29,43,232,209,88,166,91,173,6,40,142,197,39,24,16],"cliqueSize":50,"correctResponse":"arrowleft","presentationNumber":15,"trial_type":"canvas-keyboard-response","trial_index":77,"time_elapsed":54227,"internal_node_id":"0.0-61.5-0.5-0.5"},{"rt":374,"response":" ","nodesOrdering":[89,143,95,250,75,173,41,153,284,6,296,76,170,100,135,0,235,282,237,160,86,271,279,10,32,274,222,147,146,248,134,15,215,127,266,16,214,141,221,246,99,172,194,149,179,204,78,233,164,251,280,203,44,244,289,193,255,155,292,220,158,275,142,188,295,13,272,145,223,294,239,19,52,107,98,21,49,96,227,137,256,202,58,11,293,37,73,25,231,38,152,186,140,262,55,166,54,104,154,26,97,64,297,74,190,43,206,287,121,232,24,163,106,124,50,28,263,82,81,45,129,210,225,234,101,185,22,229,31,257,133,48,105,211,162,4,111,118,79,165,183,144,205,47,236,249,60,191,168,240,169,187,130,119,56,5,34,178,200,103,102,157,174,247,112,18,167,39,176,14,286,189,71,252,159,148,35,8,67,29,259,288,195,184,72,276,196,53,258,94,83,198,61,27,90,278,115,254,120,192,299,199,281,117,42,80,114,260,290,238,57,87,138,177,241,62,125,213,270,23,171,85,126,197,51,273,265,283,226,68,218,180,242,264,69,93,268,230,150,182,285,209,128,113,245,17,70,269,201,131,123,267,1,7,88,40,277,228,63,136,84,65,109,291,181,224,219,30,91,108,33,46,36,207,216,161,20,175,110,92,217,59,212,9,243,2,12,122,208,253,151,66,156,261,132,77,139,116,3,298],"cliqueSize":50,"correctResponse":"arrowleft","presentationNumber":15,"trial_type":"canvas-keyboard-response","trial_index":78,"time_elapsed":54807,"internal_node_id":"0.0-61.6-0.6-0.6"},{"rt":406,"response":"arrowright","nodesOrdering":[66,223,55,206,238,203,231,197,156,236,277,63,260,74,144,51,186,252,43,185,280,44,169,123,295,33,255,126,108,229,208,15,244,243,157,275,10,290,271,217,133,23,113,107,128,79,109,98,201,119,168,160,30,130,37,193,75,272,136,297,224,25,117,112,9,273,83,233,213,2,239,56,202,82,134,235,50,58,249,246,250,39,103,34,94,199,266,102,218,78,267,141,289,259,226,171,162,35,67,215,90,269,232,153,219,53,84,221,146,299,288,95,282,71,69,148,196,216,265,70,16,292,150,28,111,118,279,164,21,182,173,225,183,47,294,270,211,36,96,174,154,207,86,283,205,264,52,11,240,209,64,176,263,116,5,184,26,105,49,178,170,7,97,20,61,237,65,42,281,286,131,181,72,45,161,268,138,115,38,29,54,222,125,179,85,93,0,151,147,24,187,278,100,261,177,262,17,234,166,6,99,88,139,1,110,190,285,114,59,57,155,298,127,18,284,293,31,101,13,175,274,247,89,80,242,257,132,212,129,230,192,124,163,81,92,152,172,276,76,189,19,73,245,46,91,120,135,3,77,287,180,104,227,60,137,188,165,68,145,142,32,121,296,191,291,4,167,87,204,12,248,256,254,159,62,220,41,194,140,8,210,122,48,40,158,106,198,27,195,14,214,200,258,251,228,22,143,241,149,253],"cliqueSize":50,"correctResponse":"arrowleft","correctnessOfResponse":false,"presentationNumber":15,"trial_type":"canvas-keyboard-response","trial_index":79,"time_elapsed":55432,"internal_node_id":"0.0-61.7-0.7-0.7"},{"rt":384,"response":" ","nodesOrdering":[179,33,189,2,127,290,239,6,200,99,107,225,109,164,85,185,65,139,55,77,104,165,49,295,102,1,287,50,162,210,18,43,137,15,140,159,36,101,192,4,105,264,294,221,93,249,116,180,233,203,141,148,121,23,73,193,174,270,103,202,123,183,110,94,281,126,25,132,20,298,57,78,256,272,81,72,220,86,151,280,188,195,246,114,88,228,100,166,35,212,52,48,70,152,32,59,223,277,286,296,258,120,244,173,14,106,119,241,145,169,9,222,39,47,63,253,158,134,199,28,243,98,31,240,267,45,144,299,46,184,160,133,146,27,206,62,293,136,232,90,156,13,24,242,194,181,10,56,284,186,226,275,178,215,175,213,231,261,97,229,167,211,150,155,12,288,207,58,255,117,171,42,142,274,260,265,143,234,38,254,89,87,214,230,130,111,129,250,269,91,80,289,138,201,278,168,76,125,235,227,40,292,283,16,291,154,84,219,157,147,273,135,82,236,113,92,37,64,3,0,176,282,60,262,297,245,44,190,208,61,177,95,21,7,96,30,11,19,163,172,115,79,8,22,67,118,75,218,5,216,279,224,252,54,51,71,53,131,68,247,248,124,276,17,191,153,263,41,257,268,196,161,26,122,34,182,128,209,69,83,108,259,74,187,271,238,170,197,204,217,66,29,285,112,198,251,266,237,149,205],"cliqueSize":40,"correctResponse":"arrowright","presentationNumber":16,"trial_type":"canvas-keyboard-response","trial_index":80,"time_elapsed":56025,"internal_node_id":"0.0-62.0-0.0-0.0"},{"rt":41,"response":" ","nodesOrdering":[183,207,39,19,187,194,173,163,299,68,191,31,292,186,289,25,112,267,12,195,232,217,71,120,45,62,166,18,136,182,16,21,155,171,284,65,34,255,143,67,79,11,279,193,298,209,102,242,140,231,277,210,100,40,124,208,234,93,211,169,244,201,1,55,221,280,46,249,121,104,268,174,4,6,73,282,199,14,15,225,110,63,125,119,0,134,54,189,275,83,144,197,109,252,265,180,165,259,22,32,128,61,99,64,257,23,229,41,167,101,262,29,168,90,196,72,33,81,294,88,233,215,47,94,116,50,76,75,245,219,181,216,226,228,74,141,295,130,238,48,157,235,149,151,118,198,230,269,236,296,82,170,142,113,107,254,123,185,92,283,247,276,49,106,111,42,30,5,58,139,285,270,57,35,204,89,271,272,274,176,53,108,96,188,264,278,103,91,129,44,133,148,293,286,154,205,288,253,150,172,152,260,261,237,256,135,162,78,158,241,10,258,178,202,239,97,248,20,52,213,24,69,131,59,200,220,84,160,147,87,145,95,26,250,85,263,51,66,114,190,251,159,223,164,297,222,214,243,56,146,287,28,212,175,161,117,105,60,43,240,138,153,127,27,192,179,77,38,184,98,137,8,3,2,291,86,70,203,218,80,9,227,156,36,13,37,177,224,122,7,126,290,246,281,206,17,273,266,115,132],"cliqueSize":40,"correctResponse":"arrowright","presentationNumber":16,"trial_type":"canvas-keyboard-response","trial_index":81,"time_elapsed":56602,"internal_node_id":"0.0-62.1-0.1-0.1"},{"rt":8,"response":" ","nodesOrdering":[221,112,178,246,118,194,240,125,136,181,103,120,140,228,57,268,67,60,149,299,171,267,32,19,269,275,190,147,6,278,122,169,191,106,23,174,144,187,31,215,285,39,272,20,108,227,183,243,160,200,25,70,196,10,72,68,98,153,177,59,130,230,233,48,292,34,132,104,279,212,61,297,256,206,114,291,188,185,184,281,116,100,29,255,276,85,73,134,257,124,24,54,92,258,293,242,27,80,204,45,158,28,216,164,211,250,289,163,226,131,75,7,210,1,83,109,146,44,270,218,222,219,11,154,82,217,56,286,18,77,79,179,225,197,55,152,165,40,296,159,253,107,264,36,260,290,238,139,53,113,294,241,101,150,263,167,102,89,117,145,3,236,273,271,245,135,43,141,64,37,193,203,155,0,280,244,49,51,110,86,180,265,123,274,251,186,232,46,13,128,65,284,88,282,157,111,129,71,42,17,119,2,173,78,4,172,229,209,208,148,231,298,87,239,168,224,66,201,62,259,93,249,74,176,97,166,15,151,35,142,220,277,99,81,237,287,26,295,156,213,223,90,207,84,170,12,247,252,22,69,189,199,182,162,50,261,38,47,96,121,9,195,105,115,126,33,133,266,214,16,202,63,8,127,14,234,91,30,235,283,262,5,41,76,248,58,175,21,288,205,95,143,94,137,138,52,161,198,192,254],"cliqueSize":40,"correctResponse":"arrowright","presentationNumber":16,"trial_type":"canvas-keyboard-response","trial_index":82,"time_elapsed":57271,"internal_node_id":"0.0-62.2-0.2-0.2"},{"rt":11,"response":" ","nodesOrdering":[20,150,274,236,165,273,80,288,244,159,148,177,121,92,79,160,54,29,238,5,175,280,170,116,206,62,190,169,78,30,6,28,298,25,186,1,248,246,258,199,37,222,57,235,133,101,93,143,200,59,11,295,227,111,55,16,284,163,184,299,214,19,63,243,198,267,47,182,83,256,138,173,287,9,229,99,139,221,291,282,207,68,32,34,144,260,103,33,134,70,7,117,22,155,130,268,259,75,252,219,2,245,126,125,156,96,56,226,85,285,201,228,123,179,98,269,217,281,52,142,69,240,49,215,166,241,50,94,290,192,44,225,254,95,271,67,147,176,178,42,110,17,293,100,157,195,81,164,31,275,38,141,152,88,223,107,209,14,108,90,168,264,86,237,145,113,27,167,114,65,255,297,39,64,105,250,181,211,266,24,171,23,8,132,35,242,58,202,12,294,46,104,161,154,234,45,249,253,51,137,278,106,172,247,196,131,36,220,212,208,183,127,61,286,230,203,263,189,191,87,279,265,3,276,188,257,153,77,91,283,233,180,185,0,197,162,124,97,53,158,232,261,48,277,216,146,135,66,194,72,74,84,82,187,218,119,136,251,89,213,15,4,224,193,296,21,43,205,292,129,140,174,60,239,120,71,13,41,102,76,118,112,40,210,231,151,73,26,18,272,149,262,204,128,109,289,270,115,10,122],"cliqueSize":40,"correctResponse":"arrowright","presentationNumber":16,"trial_type":"canvas-keyboard-response","trial_index":83,"time_elapsed":57865,"internal_node_id":"0.0-62.3-0.3-0.3"},{"rt":19,"response":" ","nodesOrdering":[187,240,227,3,202,263,11,34,298,26,7,47,274,228,91,79,10,157,258,277,90,195,24,59,68,148,290,21,223,54,225,109,135,182,188,126,212,242,153,199,257,111,124,296,57,122,53,117,37,95,200,173,66,81,40,28,17,160,183,280,22,208,50,120,254,163,48,276,213,217,96,104,38,235,229,131,4,82,262,56,75,80,155,51,248,108,99,255,267,226,149,250,259,144,177,192,207,201,62,295,61,214,206,27,139,84,293,32,64,16,67,275,236,167,133,244,5,284,76,44,245,70,172,264,209,260,162,31,14,237,171,281,175,271,143,154,55,2,25,176,179,270,12,297,147,233,15,198,89,222,78,105,39,238,170,116,266,19,88,23,189,224,234,125,119,261,128,20,134,204,151,74,58,241,180,249,141,6,137,46,121,191,52,140,184,165,130,211,252,129,71,161,115,286,41,45,9,103,63,1,112,8,101,169,60,18,246,86,283,230,268,253,102,210,156,110,107,185,186,256,146,72,106,42,36,87,174,220,150,152,269,69,166,196,83,178,291,205,142,231,194,168,294,292,132,94,127,136,239,215,29,216,118,272,278,251,181,138,13,190,0,203,273,282,232,65,43,49,243,265,97,92,218,279,197,289,114,33,164,35,73,219,113,100,159,77,145,221,247,299,85,123,98,30,193,158,285,287,288,93],"cliqueSize":40,"correctResponse":"arrowright","presentationNumber":16,"trial_type":"canvas-keyboard-response","trial_index":84,"time_elapsed":58641,"internal_node_id":"0.0-62.4-0.4-0.4"},{"rt":12,"response":" ","nodesOrdering":[208,185,219,142,5,63,196,163,26,45,69,73,218,76,284,144,107,8,7,96,112,154,22,121,137,161,178,48,33,131,168,148,156,224,15,127,42,146,177,182,234,268,120,147,203,102,29,39,60,298,213,81,79,98,299,101,174,264,275,30,189,250,141,114,266,242,40,53,241,130,281,9,108,273,78,28,223,56,175,230,191,43,149,265,24,17,157,239,271,50,232,231,187,262,82,222,31,172,1,292,184,153,122,80,138,34,116,51,118,181,286,19,68,97,209,14,77,67,158,188,32,54,133,99,111,238,93,70,143,212,220,87,215,183,6,115,235,257,3,248,260,106,279,207,110,200,289,259,197,109,124,20,276,199,72,221,227,94,240,135,171,192,57,293,274,89,283,190,160,12,71,91,152,295,296,62,201,44,0,204,202,90,88,229,249,66,65,16,11,186,211,10,198,258,270,64,13,100,233,253,237,269,52,297,132,267,169,164,245,47,18,123,246,83,205,216,247,103,37,129,287,86,195,285,290,58,251,278,145,162,75,128,74,291,272,166,25,254,125,277,151,92,85,236,55,126,176,117,263,244,165,180,104,226,2,41,225,173,36,140,288,61,113,150,84,38,214,136,49,255,59,23,256,139,261,4,228,206,294,159,46,193,27,252,194,155,167,105,35,179,243,119,170,95,134,282,21,280,217,210],"cliqueSize":40,"correctResponse":"arrowright","presentationNumber":16,"trial_type":"canvas-keyboard-response","trial_index":85,"time_elapsed":59388,"internal_node_id":"0.0-62.5-0.5-0.5"},{"rt":1886,"response":"arrowright","nodesOrdering":[34,193,254,74,37,262,220,47,6,126,140,111,32,59,125,121,283,190,157,43,257,91,7,170,128,297,168,184,227,96,134,117,179,99,8,206,89,258,127,69,118,182,97,107,218,267,135,241,52,233,27,149,207,298,39,103,120,229,136,249,14,9,22,288,261,213,273,46,292,263,15,44,0,12,187,122,196,145,2,210,1,82,94,272,226,137,245,234,265,192,60,294,232,4,61,130,68,21,252,49,87,63,72,108,216,248,101,230,139,281,38,208,278,80,16,285,240,211,5,270,160,236,81,224,41,31,109,106,259,296,221,105,90,98,156,173,165,251,219,64,217,147,242,56,58,244,172,75,30,26,62,189,286,212,205,57,131,161,110,155,282,201,177,225,277,222,203,19,79,237,246,197,25,152,289,200,42,181,158,20,183,199,50,150,142,247,85,146,167,171,36,84,186,132,28,115,162,293,138,195,239,209,274,104,24,153,119,255,33,163,299,204,86,116,194,276,124,280,235,100,76,275,51,159,178,54,93,78,40,202,268,214,164,102,191,83,133,231,198,53,65,141,55,269,256,77,114,264,188,243,45,253,154,176,144,10,112,123,66,13,70,148,295,113,3,17,92,23,287,48,260,279,223,88,73,180,284,174,129,266,250,18,271,67,166,175,11,95,29,169,35,71,238,151,185,290,291,143,215,228],"cliqueSize":40,"correctResponse":"arrowright","correctnessOfResponse":true,"presentationNumber":16,"trial_type":"canvas-keyboard-response","trial_index":86,"time_elapsed":61982,"internal_node_id":"0.0-62.6-0.6-0.6"},{"rt":649,"response":" ","nodesOrdering":[106,170,115,55,41,99,148,38,180,197,219,81,287,133,281,294,120,98,272,92,249,250,259,46,290,184,195,214,129,86,110,84,240,291,288,50,0,82,149,37,57,91,144,34,221,7,77,155,224,12,153,190,141,20,150,65,136,194,48,137,117,14,93,273,297,162,87,68,253,45,227,251,229,183,165,64,61,232,283,262,124,164,200,207,257,198,175,168,204,235,295,187,193,96,279,94,151,26,119,32,89,237,4,27,105,206,21,113,177,268,276,70,11,256,66,146,83,243,161,102,203,191,90,230,118,35,49,40,127,205,30,17,280,78,53,69,154,178,244,126,16,85,31,60,201,71,63,254,15,24,147,39,286,265,95,135,202,5,222,261,241,160,174,67,54,223,23,25,13,173,171,181,9,97,252,246,88,101,271,128,172,275,266,122,284,167,159,44,145,260,267,80,179,103,239,10,142,3,169,212,258,36,111,58,104,100,52,2,228,43,59,8,196,192,166,289,210,236,42,132,264,138,298,226,248,139,189,188,245,242,215,255,292,114,18,76,28,22,225,185,152,157,47,285,216,299,33,109,156,125,19,56,270,51,163,274,282,121,293,238,73,140,213,211,29,231,218,208,277,130,234,143,116,112,107,72,220,186,6,74,131,62,296,263,158,1,108,182,278,79,176,247,123,75,209,269,233,217,134,199],"cliqueSize":30,"correctResponse":"arrowright","presentationNumber":17,"trial_type":"canvas-keyboard-response","trial_index":87,"time_elapsed":62759,"internal_node_id":"0.0-63.0-0.0-0.0"},{"rt":474,"response":" ","nodesOrdering":[95,116,89,26,195,43,234,273,53,19,271,52,296,270,107,209,189,17,104,82,119,3,152,260,141,198,146,67,268,54,245,190,224,278,163,157,290,133,127,151,263,24,156,10,85,121,74,250,49,233,41,64,88,143,98,222,78,252,159,171,262,23,147,217,62,266,112,14,218,246,227,277,210,59,242,231,140,8,191,131,214,90,211,4,102,44,91,125,288,33,258,80,282,179,126,283,173,128,50,244,145,20,230,175,153,186,298,75,279,129,134,34,61,66,21,235,160,251,70,291,12,29,7,223,142,6,212,249,216,287,194,256,238,138,81,86,51,124,259,122,254,257,243,55,38,239,169,200,203,18,286,105,99,232,114,208,42,120,192,237,170,269,5,197,205,253,295,221,148,136,188,77,220,58,2,45,37,293,297,167,135,84,174,31,292,101,11,248,241,199,35,117,65,168,56,155,165,177,36,185,207,236,166,69,201,28,284,79,130,281,255,72,118,219,274,48,280,16,115,261,123,193,204,111,265,97,40,294,0,57,275,289,96,30,76,47,13,15,93,180,1,206,272,103,113,109,226,73,149,68,158,178,132,139,108,181,27,162,22,39,215,46,106,240,182,154,71,247,83,264,172,213,229,196,87,225,285,184,183,299,267,164,228,60,63,187,9,202,176,25,161,110,92,94,137,276,100,32,150,144],"cliqueSize":30,"correctResponse":"arrowright","presentationNumber":17,"trial_type":"canvas-keyboard-response","trial_index":88,"time_elapsed":63409,"internal_node_id":"0.0-63.1-0.1-0.1"},{"rt":532,"response":" ","nodesOrdering":[190,80,234,119,283,19,121,74,133,142,23,96,118,164,49,31,231,150,113,191,215,165,152,288,203,278,105,161,92,54,47,53,195,10,265,284,183,61,269,32,107,21,62,199,166,132,204,264,101,159,109,175,148,104,266,184,48,83,214,213,106,1,224,8,116,163,275,11,280,130,7,185,29,65,263,126,86,154,6,241,274,90,209,99,2,189,123,244,78,39,198,77,12,127,45,232,27,196,277,168,194,95,51,84,250,268,193,91,160,295,140,131,290,114,139,267,212,138,242,24,262,33,230,112,225,249,4,38,81,162,219,14,13,281,293,287,26,272,64,76,59,43,100,149,174,221,239,129,258,72,208,282,299,216,42,157,237,292,146,238,187,259,256,36,217,207,158,261,298,248,87,289,69,120,296,98,88,205,89,128,153,22,233,125,200,223,5,66,180,115,218,70,271,243,171,279,82,111,68,144,228,34,286,147,236,252,206,28,227,294,222,226,210,182,145,297,102,50,0,58,170,60,151,143,253,276,55,73,220,229,273,197,177,16,181,134,56,52,79,136,124,117,178,63,211,18,67,37,20,240,137,75,270,235,108,94,179,3,192,97,141,57,135,245,17,40,176,186,172,257,260,169,9,251,25,202,254,156,103,173,93,255,155,35,285,167,71,46,30,246,15,85,122,41,201,44,291,188,110,247],"cliqueSize":30,"correctResponse":"arrowright","presentationNumber":17,"trial_type":"canvas-keyboard-response","trial_index":89,"time_elapsed":64148,"internal_node_id":"0.0-63.2-0.2-0.2"},{"rt":428,"response":"arrowright","nodesOrdering":[222,5,157,247,159,108,179,231,276,97,183,115,124,151,19,75,172,186,31,92,61,102,30,148,69,257,233,168,121,70,73,212,259,206,226,269,67,264,251,280,282,286,50,275,158,43,77,223,262,285,189,244,272,17,268,242,87,250,185,261,83,32,274,135,44,295,123,15,137,39,66,199,180,41,145,130,243,101,178,173,249,194,246,47,219,25,93,33,270,18,131,200,91,156,154,271,165,127,237,221,78,21,136,293,88,297,133,95,22,164,56,256,7,167,291,236,169,227,203,273,229,171,150,14,13,283,205,225,125,198,85,190,113,258,267,201,59,287,86,8,112,216,36,74,111,177,116,163,241,195,238,3,147,278,1,211,103,248,279,40,20,245,214,281,217,175,153,208,71,239,196,191,118,155,107,213,52,53,126,192,38,230,170,0,253,62,79,224,105,266,255,265,9,182,48,35,232,296,60,58,23,2,294,63,90,34,290,204,98,106,109,37,162,65,146,100,218,81,292,16,188,134,142,104,235,132,260,207,288,45,193,24,49,114,144,12,110,143,84,82,210,129,26,160,27,254,161,209,228,166,284,215,141,181,299,138,184,76,176,152,4,11,117,234,46,28,64,139,140,263,72,240,89,220,96,277,55,57,99,6,202,54,51,94,298,68,197,174,289,128,120,29,252,122,10,119,80,187,149,42],"cliqueSize":30,"correctResponse":"arrowright","correctnessOfResponse":true,"presentationNumber":17,"trial_type":"canvas-keyboard-response","trial_index":90,"time_elapsed":64775,"internal_node_id":"0.0-63.3-0.3-0.3"},{"rt":380,"response":" ","nodesOrdering":[223,37,277,84,287,160,196,36,135,248,200,86,205,11,29,140,42,189,133,292,46,59,283,154,142,33,131,143,166,4,194,256,208,245,242,193,35,230,296,243,14,264,217,129,163,113,76,0,57,89,176,93,117,51,44,187,17,257,52,266,104,234,299,123,170,24,198,172,282,90,74,271,186,161,28,31,238,267,255,279,171,190,188,125,124,168,75,252,173,225,199,158,216,105,95,67,121,150,259,237,233,55,220,122,106,215,64,60,71,295,147,10,99,288,19,138,294,79,258,112,45,293,159,265,102,50,30,81,278,298,13,7,251,139,244,18,207,26,201,247,134,212,231,241,195,235,87,145,20,100,2,132,192,3,224,226,182,221,27,246,91,49,136,164,68,177,114,270,209,92,155,206,96,8,227,297,130,281,181,183,269,58,222,73,167,213,261,236,63,110,149,152,72,85,285,218,15,39,54,9,203,12,204,83,274,268,197,202,191,53,280,144,101,185,219,250,162,286,260,284,239,179,289,98,82,272,21,107,48,111,180,262,210,291,228,254,290,6,47,126,69,115,16,214,169,157,128,137,34,5,38,276,56,40,148,41,94,103,77,178,175,229,66,174,116,97,1,146,249,165,62,263,108,232,151,118,127,141,119,23,65,22,253,88,156,80,78,25,32,109,70,43,211,273,153,184,275,240,120,61],"cliqueSize":20,"correctResponse":"arrowleft","presentationNumber":18,"trial_type":"canvas-keyboard-response","trial_index":91,"time_elapsed":65361,"internal_node_id":"0.0-64.0-0.0-0.0"},{"rt":437,"response":" ","nodesOrdering":[240,73,246,117,289,160,139,106,15,222,36,143,179,266,98,152,130,26,100,172,115,149,76,58,268,223,136,93,293,144,105,258,200,191,104,52,192,177,153,280,14,174,182,88,254,10,89,286,166,102,298,272,218,40,211,269,7,5,146,84,275,68,203,184,23,158,91,45,155,126,213,28,277,0,64,2,232,291,56,209,245,99,112,210,229,67,70,193,6,38,250,16,234,274,87,20,161,186,163,288,24,299,220,148,60,133,224,150,199,238,34,215,205,96,178,53,63,261,242,170,129,72,239,109,237,120,39,167,118,217,30,271,259,276,132,9,270,142,101,1,81,263,201,156,243,181,54,255,13,55,279,235,180,168,287,262,212,233,267,265,50,29,236,83,147,188,31,137,219,290,78,3,252,108,278,140,175,285,296,221,198,121,12,35,122,25,173,21,57,264,74,216,114,162,189,164,284,247,225,97,273,159,154,145,71,206,294,8,251,283,32,295,169,256,92,62,228,17,66,292,241,202,19,11,95,27,49,171,85,111,119,230,227,196,208,77,48,75,51,257,43,131,22,123,281,165,157,134,47,127,113,69,107,18,197,282,128,231,204,190,116,61,207,141,194,90,124,44,226,244,297,4,79,80,253,185,125,82,195,176,183,94,46,187,41,260,249,103,248,110,86,151,135,42,33,59,214,138,37,65],"cliqueSize":20,"correctResponse":"arrowleft","presentationNumber":18,"trial_type":"canvas-keyboard-response","trial_index":92,"time_elapsed":65988,"internal_node_id":"0.0-64.1-0.1-0.1"},{"rt":398,"response":" ","nodesOrdering":[203,190,158,290,186,211,278,298,105,92,108,109,228,60,80,265,220,67,32,239,232,93,89,281,182,294,297,85,268,14,103,124,227,61,10,114,287,39,112,22,42,37,162,49,213,12,35,48,241,240,86,231,115,130,202,125,136,7,246,8,44,282,94,249,122,293,168,88,230,276,270,11,195,201,165,215,274,243,216,199,99,191,52,209,223,204,21,117,183,143,283,236,284,4,225,253,176,59,263,83,27,149,41,146,9,178,70,279,128,28,97,237,272,113,148,214,179,233,2,152,104,217,269,132,131,163,206,120,184,224,155,157,244,76,34,13,229,266,258,285,45,295,238,292,30,150,299,77,275,164,100,6,110,56,53,200,142,173,145,58,192,198,153,90,55,181,271,277,96,75,210,218,73,81,87,205,33,242,260,1,51,188,0,5,38,15,129,133,140,264,46,207,102,111,174,286,134,74,273,29,234,127,248,123,138,64,119,212,194,280,261,16,156,185,245,17,160,98,54,36,82,57,116,18,62,26,208,19,254,169,69,23,197,193,95,79,296,175,43,24,251,250,78,267,63,25,151,3,221,47,189,167,141,121,159,66,71,196,40,288,84,187,219,289,68,107,20,255,101,135,252,106,256,147,170,235,50,161,72,91,259,262,247,65,154,31,171,177,222,180,118,144,166,126,139,257,137,172,226,291],"cliqueSize":20,"correctResponse":"arrowleft","presentationNumber":18,"trial_type":"canvas-keyboard-response","trial_index":93,"time_elapsed":66626,"internal_node_id":"0.0-64.2-0.2-0.2"},{"rt":511,"response":"arrowright","nodesOrdering":[11,31,52,150,285,145,144,114,248,268,66,228,29,1,148,247,99,177,157,212,126,9,176,201,46,5,64,206,120,232,294,62,249,85,16,81,214,199,15,297,165,135,75,166,243,2,32,89,164,197,252,123,65,127,102,18,213,71,264,33,286,130,103,183,266,175,291,191,245,134,263,10,131,295,25,193,205,137,187,225,270,184,259,170,117,26,132,169,147,94,152,174,110,49,223,219,116,207,216,298,59,168,279,101,86,113,167,189,4,241,121,28,163,236,93,88,209,24,299,105,194,180,133,51,43,231,257,289,274,125,161,200,290,251,72,250,178,77,171,226,229,172,58,37,181,69,278,284,67,143,265,115,80,240,139,112,288,8,182,210,19,186,42,273,30,242,239,78,246,138,47,204,45,151,155,156,179,234,154,141,36,56,104,267,50,140,35,153,269,271,118,258,13,107,215,108,57,22,160,23,27,149,287,296,21,292,208,70,253,255,119,40,74,44,6,63,84,272,12,237,54,142,275,224,276,260,185,277,198,97,159,61,68,91,106,60,79,17,158,254,34,162,217,238,87,76,111,230,190,20,281,41,136,262,92,221,83,146,122,55,95,39,203,124,38,98,73,192,283,261,222,293,96,53,128,256,202,235,211,0,109,14,3,82,100,227,244,129,7,282,195,218,48,90,196,173,220,188,233,280],"cliqueSize":20,"correctResponse":"arrowleft","correctnessOfResponse":false,"presentationNumber":18,"trial_type":"canvas-keyboard-response","trial_index":94,"time_elapsed":67352,"internal_node_id":"0.0-64.3-0.3-0.3"},{"rt":444,"response":" ","nodesOrdering":[14,153,214,105,115,185,116,251,77,173,261,204,111,207,152,172,210,212,75,118,154,174,216,92,27,28,193,231,203,250,140,222,267,191,134,65,274,183,162,186,97,10,151,98,91,246,122,12,266,68,143,285,228,17,236,229,30,170,23,19,209,247,43,136,37,190,155,268,125,259,7,279,215,240,33,297,226,178,86,93,199,107,144,278,73,24,59,131,189,181,133,238,146,0,195,13,225,141,117,161,99,290,66,90,32,258,38,157,8,71,69,197,129,255,139,164,263,165,275,39,241,166,192,70,273,262,34,171,29,239,242,18,244,102,175,234,44,227,206,230,109,46,128,87,211,22,253,11,188,76,167,58,100,286,135,200,287,127,20,233,137,284,40,208,130,96,217,41,62,272,94,276,223,123,168,2,269,132,205,298,50,124,289,101,291,232,282,150,196,80,85,88,47,120,160,163,254,288,299,48,252,281,79,213,114,3,219,280,45,6,224,177,149,26,84,57,145,35,138,67,264,218,270,54,4,21,89,56,51,180,126,277,235,159,296,148,119,108,220,74,243,248,169,9,31,110,16,147,257,256,55,49,83,187,294,82,60,221,72,260,61,52,1,53,121,293,95,182,63,36,64,142,42,25,245,15,249,5,202,158,81,112,156,176,179,184,292,106,198,237,104,295,271,201,113,78,283,265,194,103],"cliqueSize":10,"correctResponse":"arrowleft","presentationNumber":19,"trial_type":"canvas-keyboard-response","trial_index":95,"time_elapsed":67974,"internal_node_id":"0.0-65.0-0.0-0.0"},{"rt":414,"response":" ","nodesOrdering":[125,70,278,198,208,244,104,150,202,258,241,240,236,233,36,194,1,154,262,92,6,224,294,35,226,33,213,29,173,2,59,292,61,38,190,53,146,155,284,119,123,235,207,189,204,169,164,67,216,291,121,116,285,247,108,255,293,151,135,122,196,279,222,171,130,69,176,277,267,0,184,242,76,28,138,85,114,75,231,47,229,209,86,60,37,32,289,282,23,275,290,299,142,158,83,286,211,261,58,112,133,263,250,128,167,295,131,15,8,178,170,265,13,272,271,129,298,109,79,144,132,134,161,136,41,106,4,257,239,72,168,14,163,48,217,177,42,264,27,102,95,187,68,268,223,11,156,297,245,73,221,206,174,276,94,159,25,145,140,259,246,19,214,219,40,30,191,115,195,10,218,88,141,251,96,175,101,24,81,18,111,182,100,99,143,199,274,54,82,165,77,253,64,44,9,197,50,57,212,147,148,12,117,227,232,193,283,16,157,124,210,74,120,243,34,252,248,160,179,215,270,166,22,110,80,260,49,162,52,254,5,186,126,113,185,7,20,273,66,46,103,201,26,55,288,200,172,91,269,31,137,21,43,287,62,237,17,139,234,93,256,280,180,78,63,152,87,98,153,118,238,149,39,107,56,45,181,203,3,127,296,97,89,225,266,188,183,220,228,249,84,230,192,51,71,205,65,281,90,105],"cliqueSize":10,"correctResponse":"arrowleft","presentationNumber":19,"trial_type":"canvas-keyboard-response","trial_index":96,"time_elapsed":68567,"internal_node_id":"0.0-65.1-0.1-0.1"},{"rt":414,"response":" ","nodesOrdering":[226,57,279,52,182,224,78,96,133,47,138,187,48,251,112,113,158,198,66,220,9,21,176,135,136,168,139,250,73,110,240,160,293,121,56,235,70,51,37,46,13,191,127,188,91,28,156,157,61,120,205,233,259,296,193,289,81,292,32,274,83,105,196,107,16,41,165,171,123,297,278,15,273,299,257,290,169,154,18,71,117,153,43,143,175,194,116,180,223,161,55,270,79,263,228,114,192,237,100,6,72,38,58,227,245,195,236,34,200,267,260,243,82,162,145,132,294,230,269,159,221,216,93,69,90,280,124,177,50,170,33,53,249,118,146,155,97,24,152,232,151,206,76,77,23,163,40,213,137,115,68,26,134,63,60,298,262,125,20,11,150,288,2,129,285,44,62,95,45,225,31,84,99,203,22,256,238,209,59,261,281,204,277,85,35,0,147,189,242,202,98,122,287,239,1,74,186,283,190,14,275,30,211,248,101,264,106,268,80,10,271,109,207,5,185,214,234,255,27,218,244,8,7,172,128,141,199,197,231,126,208,149,19,148,174,108,12,103,253,184,65,4,3,36,258,173,219,201,183,140,178,92,286,276,291,88,130,17,86,179,54,167,247,295,284,102,166,94,212,67,119,89,252,75,254,49,39,111,222,104,246,142,29,181,229,164,64,266,42,282,131,217,25,144,87,272,241,210,215,265],"cliqueSize":10,"correctResponse":"arrowleft","presentationNumber":19,"trial_type":"canvas-keyboard-response","trial_index":97,"time_elapsed":69156,"internal_node_id":"0.0-65.2-0.2-0.2"},{"rt":425,"response":" ","nodesOrdering":[180,179,31,294,37,42,253,192,104,72,184,211,270,169,217,292,102,13,90,92,159,176,7,150,206,12,113,23,213,74,218,3,134,223,297,274,139,224,64,55,71,49,259,10,91,261,133,138,5,299,44,43,93,247,149,147,166,178,20,30,243,252,257,245,46,287,183,181,101,135,280,250,58,220,293,148,219,53,248,94,66,210,258,108,165,89,288,57,160,205,111,151,131,171,132,198,141,26,116,18,36,228,41,124,296,27,21,96,199,130,241,50,112,226,284,256,264,83,67,146,6,289,255,29,126,232,254,214,119,190,246,14,87,208,106,140,238,202,279,63,16,9,82,172,227,19,195,234,69,262,170,76,282,197,145,84,129,235,162,158,70,117,265,186,73,225,52,154,168,222,161,98,120,156,185,164,155,136,142,244,22,86,25,47,118,286,105,251,115,75,80,268,271,1,28,123,122,200,281,207,11,240,39,196,194,221,182,283,97,174,191,260,34,65,173,56,137,78,231,109,215,144,233,33,88,163,121,216,189,290,99,152,275,100,60,81,273,237,51,40,79,103,107,35,4,187,266,242,153,267,236,209,32,59,38,17,0,298,95,54,201,239,263,272,193,2,212,249,62,276,48,269,45,278,125,204,68,167,229,285,127,61,157,291,77,114,24,177,295,277,110,128,143,85,203,188,230,15,8,175],"cliqueSize":10,"correctResponse":"arrowleft","presentationNumber":19,"trial_type":"canvas-keyboard-response","trial_index":98,"time_elapsed":69751,"internal_node_id":"0.0-65.3-0.3-0.3"},{"rt":719,"response":"arrowleft","nodesOrdering":[273,35,224,208,251,110,265,59,238,163,290,60,266,161,188,45,237,253,36,107,218,197,17,202,49,164,54,179,225,235,124,149,192,40,186,5,30,83,0,128,141,26,219,52,191,61,144,13,264,98,249,100,168,55,121,154,69,180,123,92,187,259,76,19,91,242,178,167,248,102,193,50,115,16,278,81,80,159,298,210,254,25,84,172,71,241,211,152,147,88,18,150,31,283,199,182,204,291,229,106,148,280,63,66,41,198,29,177,74,140,95,189,275,162,23,112,146,6,130,214,233,24,27,131,175,97,155,4,133,271,170,217,116,174,169,139,158,127,165,57,286,33,227,171,64,258,222,70,245,166,195,12,220,228,11,250,185,270,109,136,103,255,153,137,181,287,277,125,101,108,105,184,262,145,65,2,44,263,93,28,215,230,132,201,21,240,51,113,143,260,87,288,73,173,46,99,207,247,203,104,157,285,38,94,252,20,85,77,126,134,296,22,205,274,138,117,216,15,243,79,206,282,268,261,1,58,32,90,190,256,295,122,236,223,294,9,68,82,281,212,96,3,176,183,34,14,209,297,118,221,39,56,284,53,231,160,279,62,119,272,246,200,67,292,213,226,142,42,239,78,135,37,10,7,43,129,299,151,244,257,289,196,120,276,48,8,86,156,89,232,47,111,114,72,194,234,293,269,75,267],"cliqueSize":10,"correctResponse":"arrowleft","correctnessOfResponse":true,"presentationNumber":19,"trial_type":"canvas-keyboard-response","trial_index":99,"time_elapsed":70637,"internal_node_id":"0.0-65.4-0.4-0.4"}]