"view_history","rt","trial_type","trial_index","time_elapsed","internal_node_id","success","timeout","failed_images","failed_audio","failed_video","stimulus","response","nodesOrdering","cliqueSize","correctResponse","presentationNumber","correctnessOfResponse"
"[{""page_index"":0,""viewing_time"":2748},{""page_index"":1,""viewing_time"":449}]","3199","instructions","0","3202","0.0-0.0","","","","","","","","","","","",""
"","","preload","1","3269","0.0-1.0","true","false","[]","[]","[]","","","","","","",""
"[{""page_index"":0,""viewing_time"":765},{""page_index"":1,""viewing_time"":165},{""page_index"":2,""viewing_time"":142},{""page_index"":3,""viewing_time"":196},{""page_index"":4,""viewing_time"":141},{""page_index"":5,""viewing_time"":226},{""page_index"":6,""viewing_time"":283},{""page_index"":7,""viewing_time"":300},{""page_index"":8,""viewing_time"":182},{""page_index"":9,""viewing_time"":169},{""page_index"":10,""viewing_time"":161},{""page_index"":11,""viewing_time"":164},{""page_index"":12,""viewing_time"":167},{""page_index"":13,""viewing_time"":182},{""page_index"":14,""viewing_time"":112},{""page_index"":15,""viewing_time"":163},{""page_index"":16,""viewing_time"":196},{""page_index"":17,""viewing_time"":187},{""page_index"":18,""viewing_time"":155},{""page_index"":19,""viewing_time"":137},{""page_index"":20,""viewing_time"":186},{""page_index"":21,""viewing_time"":175},{""page_index"":22,""viewing_time"":147},{""page_index"":23,""viewing_time"":144},{""page_index"":24,""viewing_time"":142},{""page_index"":25,""viewing_time"":213},{""page_index"":26,""viewing_time"":341},{""page_index"":27,""viewing_time"":191},{""page_index"":28,""viewing_time"":180},{""page_index"":29,""viewing_time"":187},{""page_index"":30,""viewing_time"":188},{""page_index"":31,""viewing_time"":153},{""page_index"":32,""viewing_time"":174},{""page_index"":33,""viewing_time"":176},{""page_index"":34,""viewing_time"":176},{""page_index"":35,""viewing_time"":197},{""page_index"":36,""viewing_time"":169},{""page_index"":37,""viewing_time"":162},{""page_index"":38,""viewing_time"":175},{""page_index"":39,""viewing_time"":145},{""page_index"":40,""viewing_time"":185},{""page_index"":41,""viewing_time"":176},{""page_index"":42,""viewing_time"":176},{""page_index"":43,""viewing_time"":170},{""page_index"":44,""viewing_time"":179},{""page_index"":45,""viewing_time"":183},{""page_index"":46,""viewing_time"":186},{""page_index"":47,""viewing_time"":198},{""page_index"":48,""viewing_time"":183},{""page_index"":49,""viewing_time"":160},{""page_index"":50,""viewing_time"":307},{""page_index"":51,""viewing_time"":177},{""page_index"":52,""viewing_time"":180},{""page_index"":53,""viewing_time"":184},{""page_index"":54,""viewing_time"":102},{""page_index"":55,""viewing_time"":195},{""page_index"":56,""viewing_time"":196},{""page_index"":57,""viewing_time"":181},{""page_index"":58,""viewing_time"":187},{""page_index"":59,""viewing_time"":198},{""page_index"":60,""viewing_time"":169},{""page_index"":61,""viewing_time"":149},{""page_index"":62,""viewing_time"":147},{""page_index"":63,""viewing_time"":187},{""page_index"":64,""viewing_time"":174},{""page_index"":65,""viewing_time"":183},{""page_index"":66,""viewing_time"":204},{""page_index"":67,""viewing_time"":207},{""page_index"":68,""viewing_time"":201},{""page_index"":69,""viewing_time"":200},{""page_index"":70,""viewing_time"":231}]","13565","instructions","2","16834","0.0-2.0","","","","","","","","","","","",""
"[{""page_index"":0,""viewing_time"":864}]","865","instructions","3","17700","0.0-3.0","","","","","","","","","","","",""
"","449","image-keyboard-response","4","18152","0.0-4.0","","","","","","tutorial/task_familiarization_images/part 1/1_N300_K170_cliqueRight_question1.PNG"," ","","","","",""
"","215","image-keyboard-response","5","18368","0.0-5.0","","","","","","tutorial/task_familiarization_images/part 1/2_N300_K170_cliqueRight_question2.PNG"," ","","","","",""
"","540","image-keyboard-response","6","18910","0.0-6.0","","","","","","tutorial/task_familiarization_images/part 1/3_N300_K170_cliqueRight_question3.PNG","arrowleft","","","","",""
"","294","image-keyboard-response","7","19208","0.0-7.0","","","","","","tutorial/task_familiarization_images/part 1/4_N300_K170_cliqueRight_solution.PNG"," ","","","","",""
"","258","image-keyboard-response","8","19468","0.0-8.0","","","","","","tutorial/task_familiarization_images/part 1/5_N300_K120_cliqueRight_question1.PNG"," ","","","","",""
"","247","image-keyboard-response","9","19717","0.0-9.0","","","","","","tutorial/task_familiarization_images/part 1/6_N300_K120_cliqueRight_question2.PNG"," ","","","","",""
"","242","image-keyboard-response","10","19961","0.0-10.0","","","","","","tutorial/task_familiarization_images/part 1/7_N300_K120_cliqueRight_question3.PNG","arrowright","","","","",""
"","689","image-keyboard-response","11","20652","0.0-11.0","","","","","","tutorial/task_familiarization_images/part 1/8_N300_K120_cliqueRight_solution.PNG"," ","","","","",""
"","214","image-keyboard-response","12","20867","0.0-12.0","","","","","","tutorial/task_familiarization_images/part 1/9_N300_K90_cliqueLeft_question1.PNG"," ","","","","",""
"","252","image-keyboard-response","13","21120","0.0-13.0","","","","","","tutorial/task_familiarization_images/part 1/10_N300_K90_cliqueLeft_question2.PNG"," ","","","","",""
"","683","image-keyboard-response","14","21804","0.0-14.0","","","","","","tutorial/task_familiarization_images/part 1/11_N300_K90_cliqueLeft_question3.PNG","arrowleft","","","","",""
"","825","image-keyboard-response","15","22630","0.0-15.0","","","","","","tutorial/task_familiarization_images/part 1/12_N300_K90_cliqueLeft_solution.PNG"," ","","","","",""
"","201","image-keyboard-response","16","22833","0.0-16.0","","","","","","tutorial/task_familiarization_images/part 1/13_N300_K140_cliqueLeft_question1.PNG"," ","","","","",""
"","184","image-keyboard-response","17","23018","0.0-17.0","","","","","","tutorial/task_familiarization_images/part 1/14_N300_K140_cliqueLeft_question2.PNG"," ","","","","",""
"","860","image-keyboard-response","18","23879","0.0-18.0","","","","","","tutorial/task_familiarization_images/part 1/15_N300_K140_cliqueLeft_question3.PNG","arrowright","","","","",""
"","1572","image-keyboard-response","19","25453","0.0-19.0","","","","","","tutorial/task_familiarization_images/part 1/16_N300_K140_cliqueLeft_solution.PNG"," ","","","","",""
"","294","image-keyboard-response","20","25748","0.0-20.0","","","","","","tutorial/task_familiarization_images/part 1/17_N300_K70_cliqueRight_question1.PNG"," ","","","","",""
"","217","image-keyboard-response","21","25967","0.0-21.0","","","","","","tutorial/task_familiarization_images/part 1/18_N300_K70_cliqueRight_question2.PNG"," ","","","","",""
"","757","image-keyboard-response","22","26725","0.0-22.0","","","","","","tutorial/task_familiarization_images/part 1/19_N300_K70_cliqueRight_question3.PNG","arrowleft","","","","",""
"","1311","image-keyboard-response","23","28037","0.0-23.0","","","","","","tutorial/task_familiarization_images/part 1/20_N300_K70_cliqueRight_solution.PNG"," ","","","","",""
"","240","image-keyboard-response","24","28279","0.0-24.0","","","","","","tutorial/task_familiarization_images/part 1/21_N300_K100_cliqueLeft_question1.PNG"," ","","","","",""
"","214","image-keyboard-response","25","28494","0.0-25.0","","","","","","tutorial/task_familiarization_images/part 1/22_N300_K100_cliqueLeft_question2.PNG"," ","","","","",""
"","1991","image-keyboard-response","26","30486","0.0-26.0","","","","","","tutorial/task_familiarization_images/part 1/23_N300_K100_cliqueLeft_question3.PNG","arrowright","","","","",""
"","1017","image-keyboard-response","27","31504","0.0-27.0","","","","","","tutorial/task_familiarization_images/part 1/24_N300_K100_cliqueLeft_solution.PNG"," ","","","","",""
"","180","image-keyboard-response","28","31686","0.0-28.0","","","","","","tutorial/task_familiarization_images/part 2/1_300_120_cliqueLeft_withFeedback_1.PNG"," ","","","","",""
"","540","image-keyboard-response","29","32227","0.0-29.0","","","","","","tutorial/task_familiarization_images/part 2/2_300_120_cliqueLeft_withFeedback_2.PNG"," ","","","","",""
"","823","image-keyboard-response","30","33051","0.0-30.0","","","","","","tutorial/task_familiarization_images/part 2/3_300_120_cliqueLeft_withFeedback_3.PNG","arrowleft","","","","",""
"","501","image-keyboard-response","31","33553","0.0-31.0","","","","","","tutorial/task_familiarization_images/part 2/4_300_120_cliqueLeft_withFeedback_solution.PNG"," ","","","","",""
"","453","image-keyboard-response","32","34008","0.0-32.0","","","","","","tutorial/task_familiarization_images/part 2/5_300_120_cliqueLeft_withFeedback_correctAnswer.PNG"," ","","","","",""
"","302","image-keyboard-response","33","34313","0.0-33.0","","","","","","tutorial/task_familiarization_images/part 2/6_300_95_cliqueRight_withFeedback_1.PNG"," ","","","","",""
"","1612","image-keyboard-response","34","35926","0.0-34.0","","","","","","tutorial/task_familiarization_images/part 2/7_300_95_cliqueRight_withFeedback_2.PNG"," ","","","","",""
"","15951","image-keyboard-response","35","51879","0.0-35.0","","","","","","tutorial/task_familiarization_images/part 2/8_300_95_cliqueRight_withFeedback_3.PNG","arrowleft","","","","",""
"","1382","image-keyboard-response","36","53263","0.0-36.0","","","","","","tutorial/task_familiarization_images/part 2/9_300_95_cliqueRight_withFeedback_solution.PNG"," ","","","","",""
"","1363","image-keyboard-response","37","54627","0.0-37.0","","","","","","tutorial/task_familiarization_images/part 2/10_300_95_cliqueRight_withFeedback_wrongAnswer.PNG"," ","","","","",""
"","527","image-keyboard-response","38","55157","0.0-38.0","","","","","","tutorial/task_familiarization_images/part 2/11_300_100_cliqueLeft_withFeedback_1.PNG"," ","","","","",""
"","387","image-keyboard-response","39","55545","0.0-39.0","","","","","","tutorial/task_familiarization_images/part 2/12_300_100_cliqueLeft_withFeedback_2.PNG"," ","","","","",""
"","410","image-keyboard-response","40","55957","0.0-40.0","","","","","","tutorial/task_familiarization_images/part 2/13_300_100_cliqueLeft_withFeedback_3.PNG","arrowleft","","","","",""
"","781","image-keyboard-response","41","56740","0.0-41.0","","","","","","tutorial/task_familiarization_images/part 2/14_300_100_cliqueLeft_solution.PNG"," ","","","","",""
"","1759","image-keyboard-response","42","58505","0.0-42.0","","","","","","tutorial/task_familiarization_images/part 2/15_300_100_cliqueLeft_correctAnswer.PNG"," ","","","","",""
"[{""page_index"":0,""viewing_time"":19907}]","19908","instructions","43","78415","0.0-43.0","","","","","","","","","","","",""
"","1160","canvas-keyboard-response","44","79951","0.0-44.0-0.0-0.0","","","","","",""," ","[184,79,195,242,96,4,290,241,37,78,217,257,67,219,129,218,200,248,93,271,196,116,244,192,283,102,61,49,35,245,281,58,151,264,125,97,173,145,146,119,99,216,277,203,148,127,181,298,101,161,287,249,22,48,32,284,92,162,100,51,221,52,64,18,89,55,94,3,10,82,2,262,123,133,239,291,197,77,158,178,59,201,186,42,220,189,202,270,204,138,46,12,222,19,209,253,63,147,265,74,23,106,142,56,70,167,198,121,40,114,211,29,85,286,240,47,16,90,185,235,213,282,65,6,170,252,108,280,105,207,117,159,11,215,160,266,191,190,25,272,164,132,233,21,68,43,104,107,157,150,17,267,254,263,296,179,39,169,288,130,212,28,98,268,183,140,294,62,86,8,274,36,66,45,210,230,177,149,293,225,15,72,214,115,193,0,152,53,232,128,292,174,176,155,182,188,237,109,247,260,5,38,246,112,199,134,31,256,135,34,194,206,87,273,228,168,295,153,261,224,275,137,231,44,279,41,229,205,27,172,269,122,30,278,60,103,226,299,156,143,7,54,69,236,76,175,297,95,131,118,120,259,227,91,9,166,26,33,113,163,71,238,124,251,154,110,180,144,84,80,88,187,50,243,285,141,136,14,139,126,83,13,57,81,223,289,1,250,20,171,234,208,75,276,73,24,258,165,111,255]","200","arrowleft","0",""
"","452","canvas-keyboard-response","45","80726","0.0-44.1-0.1-0.1","","","","","",""," ","[12,285,169,113,258,229,299,95,2,214,116,249,143,130,288,234,199,203,112,25,111,294,44,262,228,26,123,53,93,136,86,54,223,205,127,213,219,34,65,182,191,155,173,57,241,189,70,83,212,63,286,121,36,184,282,35,236,153,141,97,202,73,200,248,50,114,296,267,133,18,163,251,107,247,242,15,101,99,273,138,259,94,255,108,74,233,139,55,9,291,245,158,263,190,64,230,47,59,102,103,272,13,105,246,122,58,69,174,275,23,17,280,186,160,71,293,261,239,32,28,268,126,231,264,42,27,224,120,274,109,5,290,193,85,206,68,244,90,215,56,171,6,256,295,152,22,287,88,211,135,266,192,207,188,0,278,98,33,45,129,281,156,91,269,77,29,46,168,132,131,289,52,124,176,250,151,37,164,40,87,30,21,197,222,232,170,51,237,119,180,284,178,149,134,38,104,61,96,162,140,270,117,137,81,175,253,31,78,144,204,279,226,187,227,221,79,8,80,257,72,201,198,292,209,208,41,16,10,145,60,142,165,24,125,196,183,235,298,82,276,157,271,76,265,75,148,216,177,7,20,150,194,66,4,243,167,217,49,128,100,106,210,161,67,283,3,238,185,11,181,225,43,62,297,154,252,195,220,19,179,240,14,92,254,39,146,115,89,159,118,218,84,172,1,48,147,166,110,277,260]","200","arrowleft","0",""
"","582","canvas-keyboard-response","46","81636","0.0-44.2-0.2-0.2","","","","","","","arrowleft","[44,217,230,41,253,133,144,175,167,220,12,162,7,255,145,238,259,288,141,187,89,237,79,219,234,197,299,63,223,126,98,96,254,21,208,8,209,174,119,229,224,227,110,66,262,3,121,274,245,261,82,172,23,54,248,201,268,257,78,128,136,189,111,180,13,188,53,235,58,207,185,239,69,28,95,65,43,218,281,45,148,37,176,17,147,228,18,264,168,256,30,1,276,275,140,240,77,181,127,233,289,74,101,146,25,19,46,202,94,154,62,116,163,192,195,250,178,266,198,221,179,210,68,263,186,159,49,214,279,31,283,59,86,199,36,285,135,158,42,117,104,10,244,215,100,166,29,184,156,278,125,169,183,194,134,35,226,22,131,83,160,265,87,47,267,196,118,247,24,139,152,52,11,16,50,90,204,38,252,153,149,142,91,71,173,70,9,164,291,39,14,177,286,60,205,33,120,170,123,277,122,280,269,137,236,2,114,249,292,81,97,57,143,191,213,258,295,297,150,129,20,113,26,107,64,243,161,102,93,241,115,165,6,34,151,15,105,225,246,48,296,67,282,124,293,76,272,0,294,182,155,85,298,51,84,75,32,284,61,99,56,287,216,203,106,109,232,231,132,108,242,193,103,273,27,73,88,138,211,72,212,251,80,157,222,190,112,55,206,4,130,271,92,40,270,200,290,260,171,5]","200","arrowleft","0","true"
"","399","canvas-keyboard-response","47","82363","0.0-45.0-0.0-0.0","","","","","",""," ","[220,42,224,209,64,58,139,95,236,91,207,41,27,201,188,98,30,151,205,37,171,283,52,137,294,15,120,199,221,13,92,81,281,20,100,5,45,193,18,297,202,3,105,210,268,88,176,181,54,187,225,55,109,63,214,17,248,57,157,132,107,93,70,40,208,125,186,165,177,79,46,211,284,190,278,271,223,295,164,49,74,218,103,298,279,168,272,123,114,296,282,273,252,185,173,178,59,264,138,61,289,203,113,78,99,215,53,230,118,299,269,126,175,246,106,172,183,136,158,142,65,7,192,89,112,222,150,9,23,83,2,267,263,235,90,251,104,195,6,75,194,247,51,238,47,127,84,33,85,152,19,212,160,86,117,24,163,72,241,161,140,87,96,219,8,26,0,11,244,38,143,153,249,197,73,277,4,256,265,293,266,66,180,253,239,121,260,216,131,133,39,71,159,237,290,21,101,111,82,145,285,174,129,242,80,200,10,62,231,28,250,261,44,97,144,43,134,34,69,36,257,31,12,276,291,14,115,162,259,29,67,149,94,77,166,243,228,204,169,167,170,258,22,154,287,135,232,184,50,288,255,25,116,16,292,270,141,108,226,275,227,198,213,130,262,110,146,156,191,196,217,124,233,245,35,179,102,280,148,1,76,286,60,56,122,189,182,234,240,229,32,155,119,206,128,274,254,48,68,147]","190","arrowleft","1",""
"","359","canvas-keyboard-response","48","83044","0.0-45.1-0.1-0.1","","","","","",""," ","[247,295,220,64,16,65,149,287,174,162,201,219,214,9,265,172,10,63,53,86,24,94,245,129,137,36,269,132,91,69,146,2,179,171,112,216,28,3,35,25,278,8,233,113,21,51,189,136,279,271,34,299,252,288,128,167,203,276,238,139,70,275,1,81,199,150,296,104,116,267,258,22,103,165,52,256,192,253,236,92,141,18,262,122,193,221,234,76,143,20,155,282,292,75,40,235,79,93,77,45,210,183,147,177,17,160,153,224,131,156,90,158,244,101,251,268,121,61,105,204,185,133,120,227,27,5,0,54,202,225,264,72,277,197,46,73,56,33,32,144,151,187,212,102,180,173,297,191,239,231,272,84,237,43,161,194,49,230,274,126,19,157,284,89,119,23,249,243,15,196,67,217,60,108,109,257,293,138,273,134,213,286,181,215,226,289,39,26,31,246,95,154,170,98,14,125,11,200,82,107,29,291,13,285,270,205,118,248,186,110,71,211,198,41,135,124,62,254,229,99,298,96,168,176,266,114,6,140,100,218,74,37,55,240,259,223,87,184,283,68,59,164,12,88,209,207,127,260,57,47,58,228,152,66,169,4,188,7,175,106,206,255,97,261,44,148,178,78,290,117,42,130,50,30,241,145,48,142,208,159,281,222,111,166,242,80,195,85,182,115,38,123,263,280,163,83,232,294,250,190]","190","arrowleft","1",""
"","419","canvas-keyboard-response","49","83785","0.0-45.2-0.2-0.2","","","","","","","arrowleft","[128,90,267,145,213,276,168,115,96,49,103,37,200,169,102,13,19,51,66,266,237,154,246,26,204,62,249,21,18,268,160,247,130,150,229,242,280,185,143,277,155,291,218,77,8,61,159,215,86,87,189,279,157,299,17,53,12,153,231,2,190,20,4,9,208,109,1,182,46,257,67,284,226,212,238,38,99,6,129,228,142,207,93,235,73,295,78,70,43,59,227,250,194,47,89,198,34,199,281,196,152,7,119,117,144,124,112,282,137,156,28,289,259,68,54,0,45,239,180,98,275,32,172,205,254,72,264,64,214,287,258,210,120,195,146,71,25,171,116,44,48,127,52,31,240,5,11,166,271,236,176,252,294,197,30,161,131,181,56,149,10,245,217,125,22,288,82,122,97,35,14,206,65,167,265,92,55,256,108,94,114,148,139,132,201,69,158,84,283,126,270,42,40,33,164,191,3,273,16,163,225,80,297,298,219,233,251,138,111,175,230,113,221,223,292,290,41,296,244,203,285,232,105,101,39,262,293,79,186,74,23,104,133,57,222,107,269,147,50,243,75,24,174,173,216,81,36,29,209,110,234,211,192,140,184,85,248,123,183,274,220,224,136,151,106,95,170,188,27,179,261,60,260,278,76,177,193,253,121,162,255,134,58,118,135,178,263,202,187,91,100,286,83,272,241,15,88,165,63,141]","190","arrowleft","1","true"
"","417","canvas-keyboard-response","50","84521","0.0-46.0-0.0-0.0","","","","","",""," ","[58,183,271,203,69,258,286,290,80,189,187,196,105,257,235,94,92,236,160,84,85,153,132,119,281,46,126,57,29,289,244,38,252,143,157,275,139,59,47,108,107,263,86,142,225,2,10,123,223,204,53,3,155,243,264,199,256,292,210,242,90,70,106,163,49,130,173,227,115,205,12,268,116,52,220,149,112,269,273,138,118,148,228,24,224,91,32,239,209,232,124,75,164,63,129,43,219,158,74,121,137,230,279,96,215,249,109,0,122,165,72,161,288,102,67,16,31,176,25,13,254,104,241,261,296,197,231,211,247,168,36,140,33,120,66,181,7,27,248,217,266,48,93,270,178,113,22,55,190,40,191,162,170,282,68,272,297,1,76,62,276,125,26,21,11,166,131,56,41,8,278,171,294,222,117,65,100,61,284,50,195,206,23,265,30,255,188,79,221,64,192,42,39,287,128,234,207,144,150,180,83,201,182,14,81,136,71,99,238,34,82,89,5,169,6,274,194,175,245,291,250,202,259,283,226,285,193,295,135,240,88,233,44,17,218,51,174,78,147,60,214,110,208,260,200,28,172,18,185,9,179,267,246,167,212,299,35,87,37,146,213,20,262,253,198,298,280,77,111,237,229,103,141,151,98,159,277,97,145,184,15,293,134,95,177,114,4,133,152,251,156,186,73,216,19,127,154,101,54,45]","180","arrowright","2",""
"","360","canvas-keyboard-response","51","85198","0.0-46.1-0.1-0.1","","","","","","","arrowright","[58,218,244,51,143,76,224,278,46,139,285,49,81,89,85,234,252,223,78,275,279,267,1,205,130,6,264,44,197,134,10,42,226,236,103,131,237,80,55,194,181,152,260,200,296,271,128,21,286,146,189,184,98,157,95,227,22,163,259,185,28,121,41,182,90,150,158,67,75,26,216,137,59,109,74,124,160,231,52,16,147,299,32,183,3,233,8,175,60,0,161,53,50,77,61,34,198,246,87,254,13,30,84,164,208,273,266,86,56,247,24,111,215,148,39,287,19,196,166,274,191,172,2,180,122,140,125,213,91,228,127,45,243,155,68,207,206,169,112,100,214,268,248,269,168,126,29,82,167,20,298,31,222,38,71,188,239,120,27,193,88,153,64,54,136,258,170,159,116,277,173,270,73,211,281,144,66,115,132,65,284,293,118,250,57,251,119,280,97,192,18,14,11,187,245,283,289,217,17,297,240,15,43,204,35,4,149,178,288,135,261,262,142,96,176,272,48,79,102,9,12,70,145,186,104,282,129,162,225,107,47,291,202,238,209,203,93,232,154,69,292,255,276,201,108,23,174,36,241,101,253,195,171,156,177,263,212,151,229,242,37,138,133,105,83,33,72,165,106,256,235,62,99,117,179,94,210,219,249,63,123,265,220,295,199,40,294,92,230,290,113,110,257,141,190,7,114,25,221,5]","180","arrowright","2","true"
"","529","canvas-keyboard-response","52","86052","0.0-47.0-0.0-0.0","","","","","","","arrowleft","[292,281,194,53,150,293,254,159,224,269,108,0,270,54,297,298,180,99,189,44,25,65,245,85,191,247,60,66,222,40,264,291,117,70,153,119,124,136,237,143,32,26,145,79,284,192,165,272,48,287,242,104,151,28,29,114,15,18,283,41,1,206,57,36,252,196,214,30,197,258,243,204,233,186,211,128,133,216,266,90,63,6,162,19,39,46,213,74,200,278,198,140,103,220,21,2,107,118,10,241,35,182,205,239,229,174,277,88,203,33,215,93,92,163,256,106,72,169,98,289,67,14,62,148,113,219,212,267,187,71,83,236,175,188,109,111,178,9,228,232,24,172,120,75,201,125,76,193,131,144,183,12,244,122,263,130,154,195,280,97,127,160,170,17,8,274,78,295,173,61,141,81,261,59,123,94,80,176,86,115,142,199,52,253,49,82,58,20,207,69,246,139,37,121,271,294,100,152,68,4,276,275,177,43,249,273,166,95,208,137,116,55,282,91,255,240,218,227,210,259,217,126,84,164,73,112,56,268,16,51,179,77,299,132,129,265,7,225,156,146,296,285,147,96,235,64,87,3,184,158,89,185,288,168,171,101,102,5,138,110,23,209,38,202,279,27,167,22,134,155,47,251,45,250,161,230,234,181,50,238,42,157,149,290,31,223,221,231,257,248,13,11,34,135,260,286,190,226,105,262]","170","arrowleft","3","true"
"","642","canvas-keyboard-response","53","87036","0.0-48.0-0.0-0.0","","","","","","","arrowleft","[56,175,182,73,53,222,194,135,160,170,273,151,260,212,296,276,17,75,282,138,60,258,24,51,277,255,286,230,183,57,49,132,233,193,201,7,191,52,113,239,1,111,177,96,133,198,245,41,46,210,30,214,64,122,280,159,289,252,145,4,297,162,167,88,82,9,128,83,13,267,39,155,10,59,71,187,47,287,126,216,150,121,232,149,294,217,139,108,32,97,81,203,62,240,190,6,69,95,256,130,143,291,153,40,86,207,2,117,265,285,129,84,181,186,31,76,125,248,156,23,114,189,254,110,271,295,11,205,98,55,249,268,100,70,176,144,251,274,185,284,272,99,120,179,263,118,36,197,290,26,241,58,15,269,204,292,264,93,38,79,54,196,14,220,202,165,211,237,173,131,27,243,147,283,247,229,236,261,35,66,180,87,61,192,188,161,208,28,63,22,298,65,184,152,171,105,123,67,224,116,246,103,107,124,209,18,42,92,228,91,242,163,225,146,158,221,168,90,259,77,20,29,238,119,206,195,137,102,178,166,278,219,34,231,262,218,148,157,68,3,106,142,78,72,5,104,270,43,141,164,74,80,275,281,140,234,235,136,279,115,48,44,244,213,12,89,215,199,266,154,253,37,8,112,94,21,293,257,288,223,109,19,174,16,226,50,169,172,127,299,227,85,101,33,45,200,134,250,25,0]","160","arrowleft","4","true"
"","570","canvas-keyboard-response","54","87916","0.0-49.0-0.0-0.0","","","","","",""," ","[183,88,11,134,258,239,201,159,110,15,122,33,102,78,185,7,24,42,82,299,245,52,123,26,167,230,190,195,45,53,255,129,199,188,55,200,221,224,147,246,128,63,179,95,14,1,219,13,98,213,140,249,206,194,108,223,295,293,287,231,119,3,222,279,218,187,184,60,56,92,189,57,27,150,87,291,73,158,118,275,203,272,10,68,21,138,72,85,34,130,208,12,286,181,197,16,77,9,17,290,71,227,210,214,23,148,265,269,99,114,35,43,178,241,253,285,29,177,65,170,137,215,30,109,39,198,268,117,0,107,163,281,5,149,277,172,232,156,236,79,171,264,260,49,252,144,233,81,191,135,240,58,251,248,75,225,121,143,133,70,83,126,6,103,284,282,105,297,145,164,175,142,278,238,226,84,153,112,212,37,104,204,283,91,124,207,289,229,155,274,262,46,100,67,276,62,139,182,111,261,196,41,40,50,250,242,247,202,115,180,292,176,209,151,28,205,235,263,97,76,243,237,141,288,31,106,220,69,93,157,90,89,296,161,59,228,54,36,174,271,20,32,80,44,127,257,266,273,211,192,270,256,22,160,64,294,244,61,66,193,125,136,186,267,162,169,217,94,168,254,38,86,166,47,173,8,259,234,154,146,116,298,96,152,165,101,280,48,131,74,216,25,19,51,120,18,2,113,4,132]","150","arrowright","5",""
"","377","canvas-keyboard-response","55","88602","0.0-49.1-0.1-0.1","","","","","","","arrowright","[248,33,158,190,7,203,108,174,157,61,171,125,221,67,195,198,235,93,177,52,32,139,58,200,85,290,102,69,168,181,122,144,88,229,178,40,213,41,99,15,119,53,73,209,257,51,21,251,104,106,184,252,179,29,172,63,101,183,165,105,8,276,182,226,127,234,207,75,296,120,270,286,76,30,26,135,48,279,201,266,223,298,60,230,256,6,272,281,292,46,176,34,47,140,293,83,186,45,154,173,74,222,36,131,188,3,31,194,170,259,189,263,80,50,133,107,142,71,68,240,250,136,275,111,260,143,277,2,90,197,284,237,243,269,4,18,65,124,129,162,92,261,43,146,138,232,273,42,10,267,116,153,253,91,70,98,82,11,1,217,274,283,77,289,16,247,79,262,285,112,37,254,268,152,35,109,110,212,128,59,121,295,291,84,56,214,167,81,5,126,287,294,246,169,130,228,282,244,78,218,219,95,161,22,249,103,199,160,66,166,145,255,137,164,12,100,44,54,86,196,211,242,278,155,215,180,208,187,123,20,191,175,233,193,118,297,238,163,239,114,147,23,57,150,62,148,0,280,258,288,185,225,17,204,245,64,19,9,87,89,156,210,55,220,224,231,216,192,115,236,159,149,94,205,271,113,202,241,264,39,13,24,132,141,117,265,14,38,28,206,25,27,151,72,299,97,96,134,49,227]","150","arrowright","5","true"
"","638","canvas-keyboard-response","56","89554","0.0-50.0-0.0-0.0","","","","","","","arrowright","[177,16,285,185,240,234,21,263,69,279,254,245,93,48,170,207,220,230,268,9,2,215,272,202,74,232,41,40,255,248,276,172,113,8,87,39,35,175,156,192,1,107,235,262,194,237,86,84,130,44,162,10,186,90,3,132,199,37,236,83,159,89,198,154,122,223,70,295,106,140,125,129,222,287,114,261,134,108,136,155,126,264,204,277,23,19,99,141,59,259,241,169,14,151,163,105,238,36,212,128,18,179,71,62,247,78,267,211,50,181,143,231,53,249,282,193,100,165,24,110,25,118,265,227,119,291,168,117,224,148,109,243,145,208,15,297,82,251,167,206,201,210,103,176,77,281,256,80,273,91,131,174,76,270,228,299,289,149,54,246,164,144,95,47,116,252,161,61,42,4,296,98,271,45,242,288,13,112,221,104,298,31,147,233,260,278,200,20,96,292,205,5,217,67,166,12,28,137,157,293,183,55,213,56,58,29,219,120,258,184,135,269,121,197,81,189,187,153,214,73,66,52,127,171,274,32,57,7,180,46,138,158,65,11,64,102,182,286,244,250,203,17,27,142,115,275,0,97,33,124,85,191,30,284,38,160,72,49,22,51,75,280,101,34,133,111,123,139,152,92,196,188,94,150,79,226,290,178,216,266,63,43,26,190,173,146,195,253,6,218,257,283,60,88,209,68,229,225,239,294]","140","arrowright","6","true"
"","631","canvas-keyboard-response","57","90498","0.0-51.0-0.0-0.0","","","","","","","arrowleft","[15,246,291,208,143,175,228,19,116,255,74,179,81,178,150,48,34,126,160,207,1,196,106,17,273,170,24,241,240,73,64,289,174,225,199,99,165,72,211,272,188,57,290,286,87,237,218,101,117,232,82,136,78,224,256,212,152,186,56,40,61,280,110,236,259,30,282,253,176,85,114,201,29,275,111,35,194,219,26,120,28,134,183,190,221,223,277,51,6,94,167,230,104,159,229,162,235,22,153,287,97,263,132,95,182,100,231,270,103,266,161,187,216,299,43,2,79,66,220,244,32,76,0,141,122,214,88,102,90,200,49,245,70,10,184,21,257,112,128,158,202,36,163,60,193,292,198,173,213,154,68,172,65,298,268,142,77,264,59,46,80,130,261,98,53,92,238,243,12,294,254,260,121,144,284,139,140,206,279,180,278,31,274,50,195,27,227,197,55,226,147,189,222,71,269,129,63,281,47,265,157,109,148,52,93,42,171,151,45,168,203,191,38,205,115,5,86,242,204,209,75,250,133,62,185,145,119,258,137,3,37,7,33,54,288,169,247,18,124,84,11,39,23,177,215,276,267,4,234,127,125,293,20,131,283,105,9,146,181,67,118,13,96,135,295,41,108,296,248,107,164,156,271,44,8,25,249,251,69,149,217,210,16,239,83,297,138,233,89,252,113,166,192,58,14,123,262,155,91,285]","130","arrowleft","7","true"
"","613","canvas-keyboard-response","58","91429","0.0-52.0-0.0-0.0","","","","","",""," ","[124,101,194,16,207,95,229,174,264,28,295,173,71,251,78,3,169,32,281,141,187,59,107,233,242,245,106,35,72,165,287,235,170,39,140,157,27,56,97,188,147,116,282,55,10,286,45,87,197,150,100,111,84,201,113,292,123,203,42,65,51,19,117,129,185,120,11,18,180,52,21,238,122,230,198,202,80,112,161,89,181,144,267,1,61,221,268,225,110,262,274,299,243,219,139,96,192,98,276,195,289,236,94,215,273,246,216,231,172,67,209,248,17,269,183,224,256,76,79,296,128,285,272,81,155,278,85,284,58,177,275,293,213,260,164,136,131,43,31,36,240,249,151,258,196,288,205,154,200,75,130,241,189,148,298,26,91,119,34,90,244,266,109,105,178,142,217,193,239,53,114,190,227,294,145,263,232,247,86,297,8,160,179,7,291,212,237,222,182,83,176,226,125,234,214,99,92,4,22,210,20,104,30,37,41,103,186,254,228,167,54,146,250,108,70,135,143,13,24,47,218,153,279,290,162,261,255,73,168,163,115,102,50,277,138,133,199,171,64,46,265,48,6,82,158,252,77,38,271,93,88,206,208,166,23,74,121,175,152,184,60,49,15,118,2,223,126,132,259,33,191,14,69,127,159,156,62,9,12,134,57,270,0,137,66,253,40,211,204,220,257,5,68,149,44,63,280,25,29,283]","120","arrowright","8",""
"","405","canvas-keyboard-response","59","92159","0.0-52.1-0.1-0.1","","","","","","","arrowright","[253,91,122,67,283,84,217,160,291,147,242,250,5,222,263,90,40,79,299,161,152,208,182,249,88,65,60,272,47,101,199,115,165,14,144,173,178,16,298,117,211,219,89,255,241,32,209,108,110,156,227,23,137,132,158,188,163,76,200,294,116,205,154,127,111,70,260,257,83,187,180,82,118,11,258,248,271,112,35,153,125,288,216,141,280,293,266,171,247,296,214,2,51,240,28,55,102,34,167,196,220,286,233,207,99,130,282,289,3,10,30,136,94,162,92,62,189,210,256,231,12,119,138,197,18,224,142,251,237,54,252,155,120,297,184,245,64,212,143,174,15,24,17,225,287,146,290,166,69,104,226,181,29,44,95,107,1,106,168,159,267,58,203,151,39,66,218,170,235,45,223,31,229,268,191,0,193,239,74,276,85,281,198,133,105,176,190,57,134,73,27,121,20,98,292,129,246,140,86,139,68,221,123,8,175,284,228,96,201,186,49,52,278,148,232,177,72,87,41,7,244,128,234,164,145,50,274,43,61,4,36,183,113,33,262,277,9,53,126,13,172,6,78,100,204,169,269,42,124,275,202,26,279,215,273,150,195,80,59,21,238,254,157,25,103,71,236,259,264,109,261,48,56,285,81,93,265,295,75,206,38,22,19,230,77,194,270,97,149,192,63,213,135,37,114,131,243,46,179,185]","120","arrowright","8","true"
"","413","canvas-keyboard-response","60","92902","0.0-53.0-0.0-0.0","","","","","",""," ","[269,57,109,274,93,262,133,56,6,181,188,130,122,129,113,243,15,54,35,63,85,202,25,266,58,276,61,59,8,62,203,146,123,31,47,99,218,132,74,220,92,51,255,12,212,201,292,9,70,75,110,11,37,170,21,94,184,267,48,257,108,194,55,103,145,171,140,131,26,137,168,166,294,273,151,169,283,90,177,179,16,240,78,143,119,248,83,141,260,284,102,0,234,68,1,172,244,43,165,107,4,285,64,95,19,91,13,52,120,187,298,38,139,46,24,204,182,10,209,250,230,198,22,200,49,157,249,221,79,124,76,150,27,247,299,162,23,264,154,118,28,256,155,149,263,195,144,261,164,227,33,104,213,127,96,215,180,208,67,134,217,84,237,100,77,207,251,2,174,156,272,117,50,236,42,279,268,232,98,176,116,190,111,159,219,245,135,125,30,138,197,229,163,259,72,242,191,73,65,167,29,265,196,136,41,153,226,210,224,53,214,44,186,282,147,7,277,270,115,280,178,175,82,160,105,89,233,86,286,128,253,5,36,239,114,183,275,271,287,289,254,3,40,185,231,88,97,34,199,71,173,222,18,126,81,142,121,206,192,14,32,189,290,278,80,225,17,20,45,281,39,87,161,296,112,60,235,288,106,293,69,238,258,211,193,295,223,158,148,152,216,241,252,205,228,101,291,66,297,246]","110","arrowright","9",""
"","365","canvas-keyboard-response","61","93582","0.0-53.1-0.1-0.1","","","","","",""," ","[133,292,14,43,273,264,1,27,135,166,233,70,250,98,64,183,168,151,148,190,283,68,113,299,79,67,259,187,201,236,262,41,239,87,118,244,94,129,160,276,84,47,220,32,175,51,49,138,247,223,298,144,212,219,192,39,23,110,198,197,188,266,191,274,265,46,10,287,253,31,114,11,186,71,104,185,184,159,178,132,208,228,231,6,154,121,18,207,85,240,108,172,271,12,139,28,44,194,272,8,66,3,127,288,293,206,205,81,254,141,234,147,275,225,57,196,249,36,140,22,179,97,30,226,289,124,91,100,158,17,80,174,195,215,74,189,15,63,35,221,116,90,176,171,161,165,78,155,130,34,156,7,173,125,255,270,19,0,50,280,9,217,120,42,55,126,123,278,200,76,248,290,128,296,88,92,21,146,33,82,229,263,5,180,38,4,150,96,167,232,112,216,16,252,29,181,69,52,222,149,237,257,251,105,13,242,218,56,170,117,182,111,102,77,297,153,72,163,291,62,109,282,267,26,106,143,295,164,142,177,115,269,193,45,294,281,261,119,169,284,131,245,258,202,107,103,58,268,243,277,37,162,224,235,61,209,86,230,227,54,260,60,137,20,40,256,99,89,122,95,134,73,136,199,2,286,157,204,213,279,210,101,24,145,25,214,48,83,246,203,53,238,59,241,211,152,65,75,93,285]","110","arrowright","9",""
"","351","canvas-keyboard-response","62","94248","0.0-53.2-0.2-0.2","","","","","",""," ","[105,140,210,46,120,147,56,226,112,36,172,152,164,93,227,81,156,116,76,193,113,42,150,190,16,239,29,22,178,127,39,50,169,175,85,151,159,154,220,12,265,8,195,275,176,280,142,209,96,74,148,104,146,66,230,299,179,95,123,126,204,131,187,276,238,183,298,68,15,294,185,203,283,271,270,139,90,202,79,182,143,11,31,245,69,141,214,184,83,252,45,295,52,273,229,262,296,43,119,149,14,61,48,88,292,19,133,289,161,5,99,277,281,18,117,284,38,219,118,297,168,196,124,254,237,244,138,225,100,59,269,89,3,21,27,211,268,170,49,243,162,102,194,41,208,114,63,128,134,260,256,186,181,53,279,24,30,34,216,163,198,109,261,205,246,267,75,218,132,26,251,13,0,215,171,234,65,37,9,4,236,263,166,51,221,242,60,136,67,33,206,23,57,167,129,110,285,241,77,107,217,47,155,1,165,222,71,259,20,199,233,189,272,232,130,28,58,84,17,192,157,10,135,94,73,44,106,250,200,82,231,144,180,86,92,35,197,191,153,70,160,25,264,282,258,174,64,111,286,212,125,72,223,249,188,235,87,108,201,293,80,287,2,248,78,122,115,32,253,121,291,101,274,54,97,145,158,98,177,55,40,247,288,213,290,266,224,278,228,62,7,255,240,103,91,173,6,257,207,137]","110","arrowright","9",""
"","358","canvas-keyboard-response","63","94927","0.0-53.3-0.3-0.3","","","","","",""," ","[254,191,3,207,36,298,31,278,124,285,171,56,211,46,270,214,110,50,77,4,174,245,125,106,236,167,283,183,1,155,113,103,38,296,202,92,255,201,260,128,140,277,15,48,122,252,279,117,241,100,182,57,2,115,17,133,67,55,58,161,39,198,162,130,116,137,265,293,168,5,61,208,276,6,177,119,199,295,81,237,274,20,120,65,160,13,227,243,30,22,82,153,97,258,149,7,250,91,112,234,111,44,209,230,253,268,186,218,14,157,131,52,204,99,142,146,16,299,104,281,118,242,290,294,164,71,51,21,219,272,238,212,126,248,187,185,83,244,184,286,173,27,90,129,80,170,134,282,85,280,37,240,205,217,289,172,139,34,144,70,269,68,19,41,229,60,10,163,72,75,165,247,108,45,257,127,147,195,138,66,196,132,23,175,11,150,292,284,154,178,223,220,264,35,225,259,216,59,288,93,266,287,8,169,89,28,210,297,189,261,54,222,231,63,136,232,53,188,69,47,176,291,18,235,166,221,145,159,105,98,275,40,249,200,87,26,86,194,33,246,79,192,228,62,107,32,43,74,213,273,12,135,158,84,76,42,0,143,73,239,215,64,263,179,193,123,267,49,233,109,96,25,251,206,181,102,271,29,94,256,262,190,224,203,9,151,156,180,152,148,101,95,88,141,24,114,197,226,78,121]","110","arrowright","9",""
"","446","canvas-keyboard-response","64","95690","0.0-53.4-0.4-0.4","","","","","","","arrowright","[294,14,161,216,29,147,259,81,77,160,222,65,86,134,103,40,20,244,277,122,133,105,129,43,210,239,274,54,55,8,141,66,197,108,6,23,173,186,13,194,94,298,296,217,243,264,230,286,209,168,181,21,4,39,273,279,33,174,165,227,214,80,289,30,177,7,17,41,188,164,251,102,119,98,245,91,132,88,50,269,101,64,203,100,109,151,159,249,104,62,211,180,295,19,83,112,175,202,59,275,246,150,299,206,280,79,0,107,153,156,154,290,241,136,265,287,184,187,70,61,205,42,31,215,285,220,15,226,238,176,262,235,223,162,179,92,178,240,191,12,208,248,145,158,250,278,189,48,106,293,2,291,82,237,16,207,231,90,292,242,172,78,116,288,255,271,87,282,127,93,142,192,114,56,196,44,139,9,51,47,284,117,85,163,124,190,68,49,297,257,155,229,182,71,228,270,38,69,95,166,131,89,149,75,199,76,224,261,258,185,266,126,253,45,152,28,113,169,212,67,60,254,22,73,234,218,267,26,236,204,128,157,3,170,1,183,74,18,146,272,115,27,125,32,52,256,221,143,34,138,36,35,193,137,263,276,121,25,97,198,167,110,283,201,37,58,72,281,24,219,260,268,57,225,11,53,123,171,213,118,140,63,200,233,135,96,120,84,247,130,232,144,195,5,10,99,252,111,46,148]","110","arrowright","9","true"
"","383","canvas-keyboard-response","65","96383","0.0-54.0-0.0-0.0","","","","","",""," ","[209,261,246,89,51,85,180,298,258,220,208,65,98,171,268,53,56,78,79,145,192,125,59,199,80,126,162,252,187,233,44,244,285,4,213,121,110,146,27,49,289,195,221,138,30,174,275,88,231,237,170,141,127,155,82,177,111,166,238,124,75,132,7,222,29,210,81,182,201,9,175,55,35,226,69,183,136,214,14,279,91,250,77,167,242,277,278,76,173,179,47,284,135,99,205,290,17,45,186,34,184,50,117,20,102,39,25,63,176,28,243,32,70,236,207,224,105,104,68,198,109,280,140,96,211,191,172,5,262,143,101,114,272,267,57,265,217,154,40,1,11,193,83,266,64,212,113,249,37,255,216,188,219,24,62,157,218,58,276,139,254,107,112,295,118,158,86,26,31,264,156,287,288,235,259,260,90,152,273,0,54,227,93,150,169,36,43,292,3,194,41,116,204,189,225,185,142,163,92,294,232,240,147,119,286,270,299,190,103,159,241,71,13,239,153,74,257,234,293,60,21,18,94,296,23,95,263,200,248,165,197,123,12,73,282,178,122,230,131,46,245,108,161,223,48,106,97,196,269,297,42,160,151,181,87,229,61,16,72,247,84,251,164,67,281,291,274,206,149,129,6,228,10,148,52,33,133,134,19,15,168,202,2,22,38,203,128,130,137,256,100,283,120,115,253,8,215,66,271,144]","100","arrowright","10",""
"","397","canvas-keyboard-response","66","97100","0.0-54.1-0.1-0.1","","","","","",""," ","[85,298,72,199,102,142,272,231,84,99,32,111,222,181,35,13,30,279,261,86,64,120,219,125,107,201,208,217,42,197,67,256,132,75,147,186,144,209,196,221,207,297,6,198,139,273,293,140,232,159,211,258,283,233,46,239,245,8,235,172,79,37,136,178,24,71,167,177,101,31,123,254,114,253,134,192,92,33,162,173,165,276,59,91,53,11,185,266,143,163,275,299,112,158,264,202,287,238,16,65,271,241,213,282,95,117,50,45,90,78,188,230,128,17,115,171,25,180,295,175,103,250,40,195,88,83,252,269,4,138,109,174,194,81,27,257,113,226,224,94,288,126,278,247,118,56,289,36,228,189,2,182,146,193,168,51,296,87,150,223,20,5,105,148,96,47,38,244,240,60,156,70,225,34,116,145,203,291,229,290,152,166,121,41,12,237,55,216,164,246,212,234,265,14,294,3,161,97,52,7,43,23,73,48,57,93,267,251,15,262,63,66,135,62,129,68,89,124,44,21,133,292,220,248,106,29,153,249,131,76,204,119,54,176,110,151,227,1,277,154,200,39,179,259,274,98,206,130,190,260,284,170,10,108,28,184,22,61,187,49,155,82,281,149,18,270,215,286,210,242,285,127,9,218,74,26,157,169,122,141,183,268,160,137,191,58,263,214,243,280,236,100,19,80,205,104,255,77,0,69]","100","arrowright","10",""
"","340","canvas-keyboard-response","67","97781","0.0-54.2-0.2-0.2","","","","","",""," ","[112,68,133,251,183,290,264,104,164,26,40,94,169,178,224,277,265,121,13,45,158,125,210,168,29,234,134,191,107,43,171,19,216,193,100,293,185,209,111,294,58,203,296,22,148,228,143,298,280,190,217,110,283,114,244,276,221,99,187,46,142,184,98,32,252,116,9,278,211,198,55,188,170,267,246,61,153,49,177,136,80,122,201,297,247,212,272,289,199,165,270,138,206,197,53,15,17,215,37,31,73,218,149,47,186,95,85,124,135,8,65,25,130,227,105,88,70,207,225,21,44,226,0,52,222,241,93,87,174,232,103,269,156,109,181,255,238,67,120,128,97,147,10,291,273,5,263,182,72,258,233,127,54,76,250,20,28,163,115,230,237,172,41,157,281,261,132,90,229,3,288,262,12,60,146,11,71,150,154,79,286,152,108,204,91,123,83,96,180,287,118,82,144,285,106,59,86,140,81,74,240,4,243,189,36,129,63,113,57,131,179,137,196,42,195,249,208,24,279,35,139,248,245,173,266,126,7,92,50,16,282,260,268,56,236,64,295,175,166,102,119,78,253,151,299,18,69,101,176,213,62,1,75,257,84,219,275,223,192,284,161,160,162,256,200,14,27,159,202,214,155,145,141,231,292,66,30,239,2,33,194,51,259,205,48,117,39,77,254,220,23,271,235,34,89,38,167,274,242,6]","100","arrowright","10",""
"","402","canvas-keyboard-response","68","98497","0.0-54.3-0.3-0.3","","","","","","","arrowright","[274,27,290,16,114,181,66,272,81,207,47,170,100,246,12,255,205,127,85,20,229,14,208,195,196,2,166,107,55,74,77,174,73,152,217,46,40,105,199,32,38,52,278,203,4,292,45,295,112,233,121,164,110,148,257,184,58,285,173,189,284,211,175,206,119,3,232,56,39,212,297,22,25,252,172,286,150,294,120,179,98,103,169,153,75,194,188,296,132,247,287,101,224,113,90,219,1,26,124,5,86,159,68,214,76,225,43,44,243,223,79,216,89,54,239,37,51,258,59,264,42,92,234,133,88,60,220,213,136,266,155,108,261,7,111,249,298,262,35,117,163,143,62,228,204,93,299,146,99,126,104,94,149,263,139,0,11,142,215,82,187,129,235,277,115,36,24,190,250,218,102,248,210,31,95,273,267,275,162,122,18,160,288,41,265,182,268,57,201,23,281,118,200,270,240,17,253,61,67,289,97,154,178,165,21,91,269,141,202,230,291,242,78,227,176,280,236,134,197,84,29,241,53,144,49,28,72,83,271,8,244,221,15,156,130,128,138,192,6,123,171,185,191,259,13,180,9,10,198,167,65,279,193,69,251,145,64,157,116,283,276,80,260,282,256,231,226,186,33,71,19,63,151,34,222,30,293,140,245,109,254,168,238,50,96,48,183,147,161,158,135,137,209,131,106,237,70,125,177,87]","100","arrowright","10","true"
"","416","canvas-keyboard-response","69","99244","0.0-55.0-0.0-0.0","","","","","",""," ","[114,67,169,54,13,193,192,153,273,128,256,69,93,43,61,78,239,151,107,238,109,127,6,259,20,160,198,174,289,26,65,222,57,31,77,186,28,143,276,36,24,129,133,154,165,55,268,94,223,87,71,113,180,159,179,29,145,88,45,182,208,251,84,261,137,38,32,209,173,148,260,73,115,64,190,149,75,274,141,299,226,62,204,58,125,37,246,91,285,245,17,89,264,30,23,254,200,49,195,106,197,283,270,224,263,146,134,98,214,121,33,122,271,230,249,3,194,294,100,178,168,234,161,155,290,162,56,216,287,167,21,101,225,136,266,111,76,295,90,139,171,123,112,269,4,187,152,68,124,83,215,99,277,253,267,14,126,74,282,59,27,252,53,241,52,5,201,211,116,142,81,218,119,219,298,227,0,176,40,120,18,7,103,118,150,189,105,44,46,228,92,1,9,138,229,135,10,8,258,51,278,203,156,280,248,104,48,11,175,293,47,220,39,16,96,132,41,250,262,2,284,85,163,188,164,279,207,191,79,291,213,108,196,97,297,170,82,166,292,184,242,60,117,255,281,50,232,66,210,206,212,185,217,247,42,288,63,181,158,35,12,25,72,296,157,272,130,205,22,86,131,243,70,265,80,235,110,221,102,140,236,233,199,183,144,147,202,286,257,15,19,95,244,177,275,237,240,172,34,231]","90","arrowleft","11",""
"","348","canvas-keyboard-response","70","99915","0.0-55.1-0.1-0.1","","","","","",""," ","[280,105,50,255,214,133,201,284,289,62,258,160,287,22,253,2,262,58,210,172,12,107,97,146,137,13,122,199,230,247,220,149,8,290,179,47,291,159,198,31,17,156,232,203,254,53,93,1,77,264,36,148,188,185,125,153,240,84,139,109,46,215,271,235,191,175,82,229,231,165,223,226,80,26,104,129,241,75,56,218,27,245,293,174,30,63,78,39,274,140,7,114,286,41,98,206,297,173,70,142,115,141,112,89,136,79,202,74,52,14,195,170,299,225,19,37,212,49,127,128,81,88,228,60,278,207,25,184,4,168,44,120,263,66,281,238,111,11,183,200,24,144,54,68,164,269,113,169,249,242,65,51,248,126,176,194,94,151,155,295,147,294,64,167,130,6,72,134,28,236,190,224,152,59,177,57,20,266,197,163,239,67,16,132,205,48,0,268,181,40,92,209,180,135,18,259,143,166,251,256,117,69,10,237,178,29,187,246,55,208,100,87,257,124,21,71,3,34,106,35,244,285,32,108,150,189,76,86,267,145,43,288,110,261,61,83,204,277,193,182,275,157,99,243,283,121,15,298,265,158,116,45,192,103,102,219,221,162,252,138,222,276,233,85,96,23,38,42,216,91,211,33,101,260,282,292,73,95,90,118,5,9,186,234,273,217,250,296,227,279,131,272,119,196,213,270,123,154,161,171]","90","arrowleft","11",""
"","313","canvas-keyboard-response","71","100546","0.0-55.2-0.2-0.2","","","","","",""," ","[224,25,202,130,15,263,7,50,124,220,290,193,65,139,92,100,228,210,161,188,110,163,283,158,155,72,200,264,91,296,117,79,23,197,185,45,43,63,18,204,153,11,164,198,240,282,107,28,286,257,2,133,32,21,149,237,277,180,134,116,183,101,66,69,54,82,259,236,288,219,270,77,156,234,258,250,103,129,3,40,47,140,97,167,143,212,132,186,98,233,239,136,0,223,31,208,81,171,173,214,89,175,46,172,284,272,60,128,241,8,119,191,218,160,22,211,289,269,58,247,261,268,10,13,73,120,76,152,260,115,292,53,235,209,111,20,294,182,62,14,297,225,243,222,37,166,71,213,96,179,174,95,187,266,5,144,230,165,118,159,108,38,256,138,194,273,104,253,36,287,196,190,86,51,265,299,293,78,178,55,295,205,16,48,285,192,181,68,83,157,199,184,29,74,298,226,12,145,221,238,39,231,125,141,278,26,94,229,112,245,56,142,19,249,84,4,59,217,9,1,275,126,34,102,90,279,244,251,17,44,41,121,215,248,203,42,147,137,276,254,64,146,176,189,70,24,75,252,255,30,105,280,99,87,150,93,168,88,123,177,271,151,61,27,170,227,127,207,169,195,148,281,291,154,162,109,114,85,49,206,33,246,113,274,201,122,267,6,80,57,216,52,106,131,232,135,262,242,67,35]","90","arrowleft","11",""
"","380","canvas-keyboard-response","72","101256","0.0-55.3-0.3-0.3","","","","","","","arrowleft","[281,106,118,14,296,252,84,107,9,149,241,265,92,94,192,191,219,238,10,258,287,89,120,270,100,121,103,289,236,209,239,40,35,141,224,153,54,257,27,34,119,249,162,254,22,25,261,68,38,210,131,263,172,159,294,240,278,160,88,114,125,139,1,87,182,201,276,138,3,71,164,185,108,269,6,56,33,228,248,152,74,2,59,13,283,72,180,151,179,264,20,250,245,297,225,26,267,101,147,247,93,150,42,188,206,48,77,102,85,167,111,75,169,12,21,144,116,207,86,295,203,222,277,41,16,291,260,173,233,98,256,211,17,285,290,11,190,186,126,155,157,146,105,130,177,176,293,23,143,52,156,205,32,15,298,204,230,0,259,282,221,44,70,161,253,174,199,288,67,129,128,45,81,4,8,231,19,218,115,99,272,47,229,73,76,197,246,124,30,215,55,148,96,163,234,217,91,175,198,273,58,212,122,80,268,137,274,200,158,113,170,208,226,51,213,110,60,136,227,184,64,31,194,65,79,244,216,134,242,193,18,154,135,69,262,28,168,189,181,117,275,286,109,78,284,104,37,5,61,7,90,299,46,202,214,223,29,255,166,43,196,63,165,50,142,53,195,183,235,145,123,132,127,178,232,66,39,133,57,279,97,62,271,49,292,280,112,187,95,243,24,237,82,171,83,266,36,220,140,251]","90","arrowleft","11","true"
"","275","canvas-keyboard-response","73","101852","0.0-56.0-0.0-0.0","","","","","",""," ","[93,171,241,131,24,255,284,151,295,148,155,119,104,215,26,232,186,283,8,170,273,79,205,180,208,168,42,139,73,126,236,91,83,288,136,58,7,106,5,113,183,212,221,28,230,222,52,223,154,249,48,285,130,258,238,153,80,279,99,187,77,89,41,275,97,216,74,213,202,164,254,51,231,109,219,191,159,265,274,63,40,298,54,282,253,291,81,135,43,129,299,264,22,115,128,65,123,98,158,23,25,0,250,142,233,110,55,102,6,263,214,237,289,268,181,85,192,21,269,252,34,35,207,13,293,174,220,33,84,16,239,50,3,276,68,60,257,162,149,175,101,67,75,114,198,29,134,30,234,224,70,194,20,37,277,92,31,4,209,125,172,76,107,61,53,138,18,47,82,14,195,188,278,251,94,17,10,72,166,133,90,201,57,111,189,266,62,108,272,2,143,36,156,256,150,69,261,32,286,66,145,173,152,161,39,105,182,86,121,290,137,200,297,248,177,160,226,112,140,19,217,59,38,146,169,203,144,64,127,117,179,292,190,167,244,294,103,247,100,157,240,49,122,267,270,46,199,141,45,147,296,176,193,218,196,96,246,78,1,235,229,227,116,27,262,44,210,11,243,12,120,259,260,242,163,271,280,245,9,204,287,184,206,281,185,88,197,132,225,95,71,15,211,165,228,56,178,118,87,124]","80","arrowleft","12",""
"","311","canvas-keyboard-response","74","102489","0.0-56.1-0.1-0.1","","","","","",""," ","[196,171,259,60,15,79,124,180,170,236,158,9,212,86,136,66,13,148,260,31,82,122,45,163,208,225,186,21,147,189,238,269,215,194,187,34,64,184,267,227,141,197,10,38,78,231,112,135,274,113,98,149,131,272,132,162,103,75,247,114,61,290,50,293,130,116,93,104,48,96,204,123,178,67,133,203,166,223,210,168,195,49,176,53,71,73,229,291,85,39,262,287,298,41,8,91,253,297,277,263,284,4,109,126,217,244,280,201,24,58,151,282,221,7,242,177,216,57,102,35,165,83,144,254,140,249,119,255,191,200,155,257,173,2,111,273,118,92,268,27,121,211,19,193,76,156,285,3,296,288,68,5,32,199,169,228,70,22,1,275,167,51,65,279,239,101,258,105,6,164,252,270,179,88,63,250,150,97,198,218,286,72,243,159,152,266,37,139,12,207,264,283,219,43,0,209,127,213,20,100,25,142,157,59,245,281,161,106,87,36,190,18,117,54,77,44,220,226,40,29,110,235,181,233,33,107,95,145,42,172,222,153,295,182,128,265,81,137,14,99,299,11,256,240,94,188,23,224,28,271,80,192,52,62,26,55,278,134,261,129,175,56,47,90,202,174,185,251,146,84,276,16,74,69,248,214,17,205,160,143,289,120,234,230,89,125,292,183,46,232,246,138,206,115,241,30,237,294,154,108]","80","arrowleft","12",""
"","423","canvas-keyboard-response","75","103230","0.0-56.2-0.2-0.2","","","","","",""," ","[88,172,0,255,66,282,200,104,78,85,71,296,264,177,180,166,153,276,45,293,123,154,280,25,262,191,98,170,289,201,74,128,268,179,171,82,83,35,37,234,187,164,126,258,122,77,99,163,237,109,33,130,243,251,165,157,55,244,183,141,112,176,181,73,210,269,19,38,148,86,299,139,53,294,256,69,155,70,229,60,20,79,117,67,220,121,218,150,124,208,58,31,281,90,89,185,95,198,228,5,12,50,114,202,270,39,134,254,199,132,298,192,145,47,115,277,143,274,261,205,116,8,217,206,17,11,178,186,193,51,286,120,110,265,113,92,4,246,214,173,40,182,135,93,279,204,91,14,129,138,287,284,100,266,196,49,231,292,44,54,189,30,233,216,68,227,226,131,275,2,1,26,285,260,239,230,65,168,76,184,236,273,144,36,222,63,267,159,7,248,283,6,169,32,94,219,75,288,212,127,28,64,295,167,195,16,42,34,225,160,290,174,61,81,52,137,140,56,119,101,259,9,271,43,156,272,232,152,96,242,238,250,175,23,211,161,188,103,223,247,147,291,84,29,87,15,106,136,158,190,142,13,46,241,149,21,22,252,263,97,105,62,162,125,118,257,3,278,41,72,240,203,102,24,59,209,107,253,215,108,151,57,249,48,207,146,213,27,235,10,133,245,224,221,194,80,297,18,111,197]","80","arrowleft","12",""
"","804","canvas-keyboard-response","76","104362","0.0-56.3-0.3-0.3","","","","","","","arrowleft","[280,169,219,287,181,143,62,80,205,112,296,242,84,116,53,282,276,23,134,106,157,283,281,30,152,214,82,268,83,74,126,61,171,68,87,178,168,28,240,58,150,210,299,162,208,267,185,256,141,27,142,91,94,253,5,189,81,149,138,170,156,225,14,40,298,42,153,248,212,136,38,50,9,109,260,76,55,250,67,29,224,45,59,77,285,7,159,226,128,41,132,13,277,140,229,151,227,158,97,275,36,202,65,4,12,177,204,252,46,71,199,121,209,86,129,193,108,118,137,238,261,154,16,241,258,220,206,289,184,104,96,160,269,272,211,223,236,10,179,114,182,130,18,1,259,135,194,244,263,286,66,107,31,0,6,292,85,56,72,100,123,24,79,22,165,297,254,167,246,98,166,78,73,180,101,69,48,17,279,255,11,15,139,247,243,110,145,54,186,49,216,43,233,288,195,262,89,34,191,245,37,174,234,203,47,99,124,63,190,218,172,293,231,90,273,147,105,187,164,115,19,198,8,60,148,249,35,113,2,57,26,111,270,222,215,146,188,119,239,264,228,44,20,64,294,51,122,144,207,235,103,173,175,133,3,120,32,196,75,290,88,163,217,197,251,125,200,232,127,265,161,284,176,117,33,21,271,221,95,230,52,93,278,192,291,92,70,25,201,237,183,257,39,131,102,155,274,295,266,213]","80","arrowleft","12","true"
"","452","canvas-keyboard-response","77","105145","0.0-57.0-0.0-0.0","","","","","",""," ","[284,124,106,174,291,65,257,243,140,269,220,277,203,3,76,275,85,288,34,144,110,133,216,147,35,237,88,127,154,63,20,36,223,52,37,66,236,172,212,245,221,152,135,202,226,163,250,130,186,272,69,22,209,67,233,204,115,215,227,241,39,268,271,285,225,72,179,73,145,263,91,33,298,77,282,266,162,224,54,9,205,122,258,82,78,98,117,255,229,198,25,21,23,125,129,109,175,74,49,119,10,47,183,40,190,166,181,153,238,7,161,296,42,193,60,48,287,107,294,165,293,180,112,90,242,4,297,187,167,171,295,160,86,46,155,50,218,211,191,29,176,240,182,2,120,234,45,208,201,128,199,12,196,17,173,278,178,58,70,217,151,99,143,213,251,71,188,159,248,103,141,13,27,0,79,252,281,197,14,247,43,1,84,111,62,185,231,137,259,283,55,253,194,222,41,64,8,57,28,189,273,5,114,89,254,32,206,262,83,11,246,138,87,219,169,148,274,260,286,156,280,102,126,195,105,94,270,19,149,264,95,18,168,299,101,81,61,256,157,59,184,261,56,38,24,139,31,267,113,16,276,6,142,249,177,210,164,290,232,239,92,244,80,146,96,68,136,265,228,134,53,118,121,230,207,170,200,75,150,123,108,100,51,97,158,235,30,26,116,15,93,289,192,292,132,279,104,44,131,214]","70","arrowright","13",""
"","386","canvas-keyboard-response","78","105848","0.0-57.1-0.1-0.1","","","","","",""," ","[243,275,95,221,191,30,270,247,161,214,1,42,298,51,86,253,200,229,72,178,261,138,108,177,276,88,106,176,288,187,250,50,184,282,124,170,71,66,20,81,58,211,194,78,54,257,26,264,102,129,44,46,287,142,153,289,238,230,205,18,266,16,25,12,201,163,63,285,160,90,167,252,222,80,92,123,5,49,262,57,254,172,94,10,157,151,268,28,168,68,32,241,33,171,83,62,23,173,69,125,213,198,17,156,228,105,260,290,159,91,219,226,116,299,0,233,52,223,89,2,100,291,297,179,114,109,75,236,56,183,38,27,150,208,192,232,85,283,130,227,269,273,117,31,148,77,185,186,9,231,24,294,147,76,61,11,36,101,65,4,132,143,19,210,29,7,103,165,274,144,212,162,182,14,40,245,174,135,244,209,169,111,279,59,190,255,286,119,196,263,41,251,43,215,258,22,152,120,87,55,133,146,149,34,235,166,110,224,188,45,216,84,271,249,47,79,60,267,134,35,64,39,234,70,256,296,218,206,73,128,155,164,225,158,277,292,239,121,240,115,181,8,67,281,145,195,107,154,96,139,237,93,48,180,112,122,99,293,217,246,284,6,53,295,259,140,141,127,97,189,204,207,197,280,74,113,3,137,202,104,265,15,199,131,37,278,98,13,272,242,21,175,248,136,203,82,118,126,220,193]","70","arrowright","13",""
"","395","canvas-keyboard-response","79","106557","0.0-57.2-0.2-0.2","","","","","",""," ","[259,28,258,289,6,7,207,182,154,73,121,40,38,211,266,213,64,251,5,184,229,270,143,26,58,135,62,36,137,293,155,269,145,282,225,208,112,49,233,79,204,9,87,113,60,299,146,44,237,99,21,240,27,115,257,81,189,275,148,111,250,85,144,13,200,263,54,153,283,272,141,114,43,53,298,276,83,116,66,3,197,150,203,187,249,90,172,16,248,221,254,24,297,4,97,290,194,18,291,84,173,41,202,191,278,80,178,161,25,195,268,47,57,17,32,11,139,198,125,118,192,159,72,122,103,124,273,136,180,220,288,223,222,166,149,245,75,216,55,279,160,106,186,59,93,129,215,224,241,190,201,132,284,175,134,256,92,8,230,295,277,89,101,68,217,127,262,30,70,199,210,165,239,235,193,238,232,296,287,265,29,243,261,23,105,61,131,246,292,147,94,281,104,181,117,255,33,179,219,100,130,37,228,227,174,156,242,167,206,158,267,168,212,0,52,209,247,107,110,119,163,35,108,56,42,51,205,77,91,214,95,185,157,253,22,120,88,285,183,50,260,188,133,280,128,34,19,82,169,78,45,231,39,86,294,171,48,14,31,138,271,102,63,126,196,234,1,15,176,252,2,140,96,162,164,152,65,142,264,151,67,123,10,170,226,236,109,12,46,177,71,74,20,69,98,244,76,274,218,286]","70","arrowright","13",""
"","314","canvas-keyboard-response","80","107189","0.0-57.3-0.3-0.3","","","","","",""," ","[138,49,235,280,135,176,287,88,42,278,111,101,172,230,167,67,64,112,294,118,157,199,130,194,91,289,153,36,31,54,185,90,102,57,8,47,258,59,257,212,161,104,93,40,264,227,121,221,213,74,205,168,288,233,206,149,79,140,240,55,184,33,219,106,200,160,87,203,131,236,234,137,183,273,202,41,27,72,231,43,56,186,52,5,100,139,132,146,260,292,122,187,226,86,239,125,144,193,66,285,37,204,210,196,38,19,95,275,60,251,113,173,105,23,150,35,68,134,44,259,77,29,248,53,13,282,272,175,30,28,141,152,127,165,249,115,133,253,24,124,143,65,158,195,50,110,246,222,147,281,11,269,39,81,123,85,63,15,78,170,46,225,89,198,179,22,283,252,162,20,159,241,243,145,98,70,277,250,245,61,73,12,218,84,244,174,120,256,163,126,262,191,237,261,270,155,276,223,9,71,298,188,291,4,97,58,25,284,75,215,109,297,271,274,1,290,32,169,129,76,154,99,242,17,136,21,201,177,164,220,263,48,69,117,296,279,142,217,265,180,192,151,232,255,16,62,247,114,211,209,116,103,10,92,0,119,254,178,190,299,208,224,229,7,171,26,108,214,51,228,207,94,238,18,128,2,34,80,295,156,6,267,166,45,96,293,266,82,107,83,189,182,216,3,181,148,197,14,268,286]","70","arrowright","13",""
"","345","canvas-keyboard-response","81","107848","0.0-57.4-0.4-0.4","","","","","",""," ","[190,75,8,64,136,26,69,165,244,262,237,96,297,48,153,108,174,278,37,125,245,25,279,234,173,164,9,57,252,146,293,119,20,213,62,224,74,273,127,299,207,34,202,199,27,225,67,248,212,77,81,192,42,147,15,166,162,235,231,240,92,3,179,46,17,257,251,32,159,276,183,154,232,1,109,72,101,194,285,233,254,255,91,66,36,145,73,238,98,181,204,219,261,283,167,191,54,209,56,289,149,5,298,22,294,187,60,222,47,203,139,35,82,241,13,63,215,288,106,65,264,172,226,117,19,268,169,137,2,258,58,100,140,171,52,11,0,129,86,274,23,83,105,111,267,239,123,210,200,168,99,205,4,296,175,177,253,263,43,217,290,150,211,291,120,230,110,88,85,265,33,6,170,55,31,287,103,89,188,132,30,38,112,151,152,249,143,144,130,272,76,102,90,21,155,68,156,41,247,160,61,161,10,236,95,141,93,269,12,114,97,286,133,266,14,107,295,121,277,185,275,250,87,28,16,246,126,78,201,280,53,208,284,197,51,135,292,115,158,50,80,178,71,176,94,134,186,29,118,256,39,59,7,198,79,142,24,128,49,220,70,104,163,243,180,138,40,195,157,223,116,228,242,259,113,270,189,260,124,148,196,193,229,182,84,18,282,216,214,45,184,218,206,227,271,44,122,281,131,221]","70","arrowright","13",""
"","296","canvas-keyboard-response","82","108467","0.0-57.5-0.5-0.5","","","","","",""," ","[58,81,173,104,116,75,224,10,220,82,2,174,47,114,93,162,274,259,176,161,196,61,232,122,299,170,56,76,130,25,282,190,277,210,133,236,95,226,293,243,26,13,65,216,68,255,0,8,209,126,129,163,251,212,273,78,297,294,86,198,103,191,34,144,158,217,24,252,27,50,249,239,195,261,36,30,275,89,71,80,55,146,87,188,181,33,237,109,43,9,269,102,15,215,268,11,225,266,295,175,157,106,202,284,90,211,100,137,92,296,242,214,194,140,14,105,285,228,54,183,271,178,245,288,74,227,79,154,223,172,12,138,206,35,246,142,197,42,119,3,5,187,267,38,276,235,7,253,164,254,166,151,280,117,272,150,289,155,153,62,204,213,1,189,118,139,286,186,218,287,283,31,99,32,234,147,23,124,148,128,131,258,53,63,64,229,46,70,156,240,278,120,98,145,205,203,113,101,281,91,57,270,96,231,247,244,279,264,241,292,22,110,18,72,238,115,263,4,60,185,108,260,40,83,222,207,67,16,180,127,6,111,19,123,219,94,39,298,184,200,49,256,201,167,171,159,208,77,97,179,29,169,66,199,141,21,230,168,291,41,152,73,134,52,59,51,165,250,160,84,136,233,177,48,28,121,265,182,69,262,125,132,192,17,88,107,85,248,135,149,45,193,44,257,112,37,221,143,290,20]","70","arrowright","13",""
"","405","canvas-keyboard-response","83","109181","0.0-57.6-0.6-0.6","","","","","",""," ","[196,13,101,228,150,256,138,113,39,263,2,200,156,69,293,60,47,28,125,37,10,3,151,54,168,183,205,253,216,74,219,145,49,76,86,97,131,217,46,164,230,250,126,157,171,202,194,7,146,118,295,120,23,262,265,84,162,40,237,298,299,184,206,110,132,276,165,148,33,174,87,25,257,22,282,31,77,175,144,296,261,94,21,167,190,143,57,117,187,181,62,238,185,232,140,95,249,241,285,141,210,178,269,201,139,55,14,158,66,6,229,72,124,98,27,240,121,43,11,160,283,5,0,207,119,52,176,154,88,272,34,198,107,235,251,180,239,42,58,221,211,70,105,244,71,284,288,166,114,1,29,19,82,48,112,38,292,242,289,17,270,208,255,213,102,172,103,96,264,209,220,173,193,137,135,163,63,20,147,273,92,197,191,169,279,179,243,245,56,215,89,286,127,64,223,267,65,109,233,24,9,236,115,134,122,281,204,297,227,75,258,111,186,248,61,278,212,199,218,12,277,155,128,16,271,247,108,192,116,274,161,90,153,41,106,50,290,79,130,30,252,80,159,68,83,225,18,275,81,4,177,254,231,222,214,224,170,93,91,291,203,78,246,67,136,26,85,234,36,8,182,266,142,44,188,99,45,260,59,287,32,73,149,259,280,226,129,51,268,123,53,35,104,152,100,195,133,189,15,294]","70","arrowright","13",""
"","381","canvas-keyboard-response","84","109878","0.0-57.7-0.7-0.7","","","","","","","arrowright","[15,132,18,190,17,85,26,0,84,27,244,246,5,126,62,170,233,228,185,269,196,123,289,262,98,139,95,113,274,268,12,191,266,281,270,198,147,232,42,111,201,234,295,141,192,143,229,90,54,151,271,235,119,213,6,245,92,76,212,216,138,104,188,8,120,194,174,253,38,186,287,256,280,203,74,50,72,44,285,176,214,55,3,80,57,51,237,13,286,238,28,35,129,222,33,259,94,175,159,66,118,255,31,169,168,86,166,68,63,273,164,142,241,294,58,165,283,290,34,106,179,183,9,161,52,88,180,133,107,187,155,25,162,77,115,211,39,242,59,46,243,30,254,299,114,163,298,260,182,205,4,250,146,24,40,227,276,173,257,81,14,193,204,167,1,102,136,209,97,292,48,177,154,178,199,65,108,272,124,110,49,240,278,248,73,78,195,279,171,153,29,282,43,293,284,45,160,7,135,99,71,64,197,69,82,224,291,265,267,150,67,22,207,288,53,61,230,258,23,127,158,131,219,220,263,226,47,215,225,210,41,96,137,231,275,87,236,189,89,16,206,37,247,103,202,117,36,19,208,93,148,140,184,264,134,75,172,70,101,152,144,121,79,221,32,11,261,223,105,116,112,60,218,249,296,200,251,149,145,2,252,181,20,217,56,130,128,239,91,122,10,297,125,157,156,100,277,83,109,21]","70","arrowright","13","true"
"","450","canvas-keyboard-response","85","110643","0.0-58.0-0.0-0.0","","","","","",""," ","[218,172,177,264,61,54,194,206,287,124,136,151,199,52,20,104,142,74,83,34,10,270,107,250,246,84,112,48,197,51,67,140,94,221,258,79,240,23,30,228,165,69,275,208,92,62,268,175,195,102,41,145,25,97,85,225,191,33,259,292,147,70,254,86,0,167,297,291,181,293,113,130,273,283,279,150,39,174,44,13,37,28,148,219,230,243,282,11,169,192,75,59,5,269,227,166,22,189,155,105,134,65,36,106,14,224,183,164,120,153,60,244,38,141,160,114,109,45,235,8,223,262,176,162,108,257,212,159,115,96,99,220,299,101,77,63,238,233,87,281,161,146,247,180,295,143,203,190,4,149,127,274,100,9,119,129,278,15,266,24,122,32,121,265,88,116,193,128,16,91,43,196,217,90,248,17,289,42,173,231,156,35,298,78,229,296,81,135,185,123,271,118,200,72,126,1,117,138,198,234,285,133,211,144,2,12,110,253,226,242,267,179,64,252,40,21,71,154,31,131,245,66,68,187,256,288,251,18,168,272,239,7,103,214,26,276,294,215,57,98,3,132,290,29,170,46,58,184,152,89,53,95,182,125,209,237,76,204,111,277,19,255,284,261,205,207,280,263,222,249,241,158,163,232,260,213,73,82,157,49,50,178,6,55,137,210,188,202,236,216,93,139,56,47,186,27,171,201,286,80]","60","arrowright","14",""
"","369","canvas-keyboard-response","86","111335","0.0-58.1-0.1-0.1","","","","","",""," ","[270,279,188,33,297,74,37,108,115,199,250,218,105,47,230,34,14,235,189,286,296,204,70,277,26,260,227,57,171,191,220,174,84,61,76,1,190,142,130,143,122,223,69,153,157,165,239,245,66,53,95,136,45,150,68,177,244,78,121,243,222,262,160,209,116,137,134,273,258,62,118,276,27,156,110,226,13,75,278,155,287,3,86,133,263,139,7,102,167,280,64,180,22,248,30,200,89,98,208,255,281,192,264,163,162,67,17,140,127,128,205,206,241,80,295,168,125,159,256,124,158,109,195,237,71,123,21,144,219,252,93,24,145,293,135,111,259,266,265,147,251,212,284,46,294,82,49,6,41,54,210,267,73,36,65,59,5,182,228,173,91,9,96,183,52,58,154,254,38,151,166,141,32,114,149,120,56,271,132,215,77,129,240,269,11,211,81,283,292,50,225,152,20,40,217,282,229,175,172,117,0,246,12,79,179,25,236,87,8,148,39,253,213,285,138,178,257,31,249,289,224,60,107,88,83,169,85,184,72,19,16,103,242,55,207,164,198,231,196,146,187,221,126,238,202,35,247,113,203,176,290,90,272,216,43,194,63,2,232,48,28,170,29,299,181,274,131,119,99,97,101,94,268,291,15,92,214,23,106,201,234,10,275,298,185,42,104,51,161,100,288,186,4,18,233,197,261,44,193,112]","60","arrowright","14",""
"","355","canvas-keyboard-response","87","112013","0.0-58.2-0.2-0.2","","","","","",""," ","[9,249,137,205,32,275,6,26,64,174,288,87,97,35,101,21,79,86,119,271,67,133,241,110,15,76,211,74,166,47,278,252,1,283,286,233,49,103,70,188,2,209,44,198,293,203,112,143,12,223,99,158,297,50,22,61,34,132,228,195,160,108,135,274,91,207,116,5,294,251,163,150,105,151,269,291,45,18,180,189,14,149,46,201,95,265,85,78,272,169,183,90,58,120,93,82,282,0,55,175,226,37,172,129,257,100,245,248,140,219,41,107,52,84,232,261,168,290,7,43,33,27,279,142,242,161,212,123,220,146,259,214,104,98,109,36,25,72,246,57,284,202,234,40,285,179,227,216,157,199,177,222,30,244,273,24,145,88,221,89,83,139,196,267,264,23,117,194,191,124,20,236,10,218,270,260,115,113,277,4,138,148,186,256,170,77,144,121,56,131,167,16,71,81,247,182,127,48,3,165,292,268,17,250,114,54,295,217,237,262,122,38,230,231,225,19,213,204,155,235,147,53,39,239,11,162,69,80,106,208,287,215,253,59,8,42,75,13,118,190,96,184,298,206,229,68,181,31,266,238,51,299,276,29,255,94,176,65,159,141,154,197,281,192,258,171,210,289,296,243,92,254,60,73,224,280,193,200,156,178,134,102,187,111,152,136,263,185,125,130,62,173,66,240,164,28,153,128,126,63]","60","arrowright","14",""
"","357","canvas-keyboard-response","88","112676","0.0-58.3-0.3-0.3","","","","","",""," ","[154,30,144,39,208,84,229,157,153,197,174,173,266,89,240,130,217,275,18,216,272,15,47,273,169,129,62,225,228,112,244,41,119,0,214,123,294,80,246,195,183,164,114,56,293,115,176,64,71,257,263,85,70,286,238,107,233,285,291,212,276,121,147,99,33,25,143,142,167,249,9,58,203,172,21,137,206,122,180,178,220,161,255,279,146,148,138,236,88,12,237,258,126,3,60,139,87,192,287,98,77,127,52,202,55,13,213,218,200,254,65,196,83,53,133,261,189,102,165,283,298,256,187,76,190,68,239,116,269,288,57,61,45,92,106,67,278,199,292,243,166,81,35,262,188,2,205,230,124,86,4,19,253,235,267,73,227,16,136,152,252,145,185,219,171,140,209,170,5,110,141,179,59,297,295,128,242,299,135,241,159,191,8,260,274,97,31,221,163,50,117,63,251,82,44,181,222,10,198,125,96,101,168,11,210,296,72,182,7,48,51,132,151,22,282,290,175,111,177,20,40,162,74,24,42,277,289,43,78,69,207,109,38,223,201,131,1,211,259,271,23,204,134,75,280,120,93,90,160,14,226,54,95,231,66,234,79,156,265,94,103,105,284,34,49,46,248,158,184,150,32,149,108,268,26,104,27,6,193,186,37,270,36,245,91,29,215,194,155,224,100,281,247,113,250,28,264,118,17,232]","60","arrowright","14",""
"","406","canvas-keyboard-response","89","113394","0.0-58.4-0.4-0.4","","","","","",""," ","[177,80,87,191,114,151,240,270,148,222,282,160,42,257,235,264,66,40,231,23,249,208,246,60,212,122,196,163,107,227,1,44,115,236,221,263,250,154,298,2,91,274,206,251,93,253,72,92,70,279,105,77,38,176,276,147,155,132,211,185,232,289,10,182,73,53,33,234,109,281,286,123,113,31,102,5,32,3,141,295,161,125,131,213,243,146,96,171,65,24,261,189,83,230,101,193,126,164,56,299,39,158,294,100,112,292,195,266,8,278,78,293,103,167,152,207,187,17,45,156,198,121,218,57,209,194,50,239,214,273,283,226,219,269,47,134,28,19,216,136,248,137,0,256,238,225,153,247,27,162,99,280,118,90,119,284,205,173,37,180,149,116,86,200,181,165,186,71,242,245,144,30,14,201,129,296,128,244,111,184,82,41,34,97,51,106,237,110,285,255,262,168,130,89,75,150,178,9,46,259,35,140,48,22,183,81,139,271,124,6,138,55,233,287,104,29,79,67,297,267,43,16,254,69,61,175,252,241,190,4,275,258,108,290,21,228,260,133,169,15,142,25,143,68,265,202,63,199,210,62,26,135,197,12,64,13,229,88,268,36,20,224,18,215,117,217,127,11,52,7,192,84,188,204,288,85,203,120,145,291,174,166,58,95,54,157,59,76,272,172,94,179,159,98,277,74,170,223,49,220]","60","arrowright","14",""
"","426","canvas-keyboard-response","90","114144","0.0-58.5-0.5-0.5","","","","","",""," ","[274,55,153,200,234,22,59,34,203,126,254,100,256,136,84,193,63,50,295,223,205,32,78,142,199,288,246,89,195,214,76,124,145,56,129,173,194,186,282,104,33,8,272,225,157,215,23,293,202,39,65,121,79,277,233,46,156,14,86,7,228,236,101,119,198,255,175,44,166,30,31,42,216,82,70,260,67,160,88,13,210,150,5,191,135,259,247,219,93,15,244,137,217,253,227,149,20,245,106,165,19,74,107,26,132,105,58,131,130,174,140,120,1,96,80,62,209,224,152,232,24,297,103,211,3,21,265,176,294,185,179,81,73,60,283,250,196,75,54,83,10,180,299,177,146,184,226,238,2,116,122,12,167,231,229,161,138,98,289,68,125,187,239,220,77,114,291,241,278,168,127,155,197,262,87,29,267,72,222,27,240,268,276,36,242,111,249,206,158,292,144,71,6,115,41,113,298,170,139,183,237,47,48,190,35,169,218,164,243,53,172,4,64,110,143,279,28,51,69,271,61,230,85,212,43,141,181,9,17,207,258,284,38,287,235,290,269,273,117,261,189,263,108,109,178,281,128,201,221,66,37,188,162,204,99,134,275,264,270,213,133,147,251,25,92,57,163,208,49,18,91,148,257,252,45,0,95,151,97,296,285,248,192,90,171,11,118,266,94,286,112,159,16,182,52,123,280,40,102,154]","60","arrowright","14",""
"","378","canvas-keyboard-response","91","114848","0.0-58.6-0.6-0.6","","","","","",""," ","[66,214,43,118,147,173,50,166,221,55,34,41,197,298,120,291,71,89,155,25,7,183,159,180,250,225,57,154,68,30,136,178,177,268,162,252,128,86,107,204,124,144,2,90,151,148,283,208,141,112,297,79,164,21,9,44,48,205,88,259,247,109,54,14,287,51,240,290,130,61,65,153,274,133,233,176,263,228,37,160,84,201,234,293,100,95,232,36,235,169,260,73,253,22,1,140,126,265,292,69,238,171,231,143,199,139,27,83,3,174,206,278,266,119,193,227,277,78,101,74,281,285,31,295,28,115,12,75,168,272,81,137,294,236,4,165,288,98,47,132,92,261,5,245,122,76,237,299,32,161,217,218,102,188,96,59,131,192,226,296,45,158,53,184,62,16,289,211,200,284,80,108,17,106,26,72,273,267,249,264,223,229,29,110,149,251,257,24,209,87,67,212,64,125,111,244,58,85,187,97,52,181,46,63,6,254,198,56,94,145,185,230,70,242,35,190,91,215,279,269,93,33,220,276,216,23,255,99,170,49,135,286,42,129,114,138,104,103,224,146,142,241,210,207,40,134,280,121,38,116,19,105,15,18,172,13,8,258,179,167,127,196,222,282,213,189,275,11,117,256,243,77,182,20,123,239,82,175,157,156,194,10,195,0,203,60,186,271,219,270,191,39,150,113,262,163,152,246,202,248]","60","arrowright","14",""
"","469","canvas-keyboard-response","92","115644","0.0-58.7-0.7-0.7","","","","","","","arrowright","[23,179,224,62,254,51,189,213,24,80,78,157,265,26,250,248,12,79,122,44,236,88,166,27,110,260,280,90,161,181,94,140,42,69,287,143,216,11,177,14,180,188,164,217,271,130,98,186,17,293,101,120,171,84,50,48,74,56,261,30,214,272,104,222,296,114,253,38,284,211,109,247,108,199,53,190,57,128,238,258,187,182,97,138,167,21,201,221,232,168,273,37,95,73,298,91,99,220,210,60,25,65,153,152,136,113,158,227,160,54,205,244,123,82,203,63,29,240,264,256,176,8,228,107,52,245,147,0,274,124,4,172,183,234,85,146,230,92,148,41,242,5,251,32,196,87,145,241,269,117,76,295,121,255,126,47,28,129,281,61,103,257,266,259,219,246,175,83,75,149,289,235,3,154,43,105,163,59,125,49,252,102,229,277,46,66,226,100,209,162,212,243,204,191,286,71,58,193,218,133,93,159,144,170,173,285,33,36,35,268,19,270,231,72,67,299,185,112,96,9,77,139,267,294,89,20,165,207,197,18,297,279,275,13,2,127,135,291,192,200,1,174,141,195,142,282,111,115,39,106,155,178,119,184,15,64,156,7,239,137,262,225,6,40,283,233,223,202,150,215,131,290,194,86,263,68,292,118,55,70,237,169,206,81,278,249,276,134,34,208,116,288,45,16,31,198,10,151,22,132]","60","arrowright","14","true"
"","417","canvas-keyboard-response","93","116379","0.0-59.0-0.0-0.0","","","","","",""," ","[18,270,234,84,253,111,136,299,74,22,228,4,131,133,85,59,67,284,169,218,11,102,266,110,255,195,117,101,139,220,176,31,186,53,236,105,205,224,112,36,154,80,134,62,128,151,269,73,165,175,289,137,138,225,296,96,210,68,50,39,19,221,51,64,202,147,239,222,212,38,263,35,149,285,157,24,274,1,209,130,56,276,81,66,290,243,179,49,5,87,146,277,98,7,95,261,148,54,76,245,242,121,171,241,246,167,2,6,153,75,69,104,273,217,41,90,196,272,45,181,248,114,21,119,60,240,187,13,256,122,9,48,267,254,61,178,92,135,258,200,71,173,141,214,265,257,10,82,203,166,194,275,251,206,213,155,83,99,129,120,88,230,287,72,282,30,198,161,140,199,142,27,235,185,150,70,294,103,172,152,78,215,288,97,174,26,286,28,189,260,184,223,219,44,40,100,279,188,17,15,65,191,291,295,113,298,232,25,34,144,264,156,123,180,216,109,207,231,108,201,12,127,170,79,250,124,247,190,145,43,23,158,293,86,125,164,182,16,162,63,57,226,208,32,292,33,160,93,283,46,271,193,94,29,42,168,55,229,47,280,58,159,20,116,107,132,252,8,77,249,237,14,91,281,3,268,106,297,183,118,259,0,37,211,89,278,143,244,115,52,163,238,126,197,204,262,192,233,227,177]","50","arrowright","15",""
"","292","canvas-keyboard-response","94","117007","0.0-59.1-0.1-0.1","","","","","",""," ","[46,204,282,264,99,214,141,290,108,65,211,283,228,223,161,61,257,252,240,32,142,296,92,192,114,9,184,251,254,284,113,85,177,287,222,152,250,137,285,279,198,274,111,130,269,277,182,4,163,207,106,276,102,63,103,219,69,171,199,217,134,94,148,53,24,131,0,51,194,2,229,13,109,55,218,162,176,258,79,295,107,210,180,247,156,91,38,22,166,253,28,173,236,84,246,242,105,233,243,23,172,136,144,157,292,101,64,16,178,289,237,56,271,227,25,67,83,206,52,231,213,245,68,5,41,119,183,239,40,126,124,54,112,19,169,225,294,160,187,75,122,230,120,45,48,110,132,286,266,86,259,20,30,153,12,80,159,234,248,158,215,121,44,267,297,36,191,288,174,232,185,196,18,47,115,127,125,34,29,35,96,77,299,97,170,14,270,293,263,27,200,221,31,21,93,195,201,128,140,179,244,76,260,17,1,238,116,81,117,168,73,241,147,95,74,188,272,133,15,146,43,235,220,139,58,224,291,10,249,190,39,262,164,129,275,175,98,3,70,62,189,26,280,165,138,197,118,49,87,298,256,123,6,11,167,145,42,216,90,59,71,226,155,33,154,7,265,209,281,203,268,104,143,278,72,78,212,208,149,57,100,89,193,135,261,60,181,273,37,151,50,8,255,88,186,205,82,150,202,66]","50","arrowright","15",""
"","312","canvas-keyboard-response","95","117637","0.0-59.2-0.2-0.2","","","","","",""," ","[90,151,268,246,235,221,297,39,291,2,82,271,8,149,202,73,36,299,261,66,288,229,180,267,35,6,137,260,31,157,169,52,244,21,249,198,67,60,264,226,56,109,17,231,255,193,37,135,15,194,123,236,134,4,116,122,199,227,181,47,114,79,164,58,19,48,102,84,120,266,65,208,24,117,216,34,63,195,276,252,298,248,71,232,133,55,281,283,68,110,233,106,272,178,108,218,99,0,40,10,189,62,224,126,142,11,212,165,112,245,191,78,12,251,166,28,278,44,257,209,160,210,107,150,204,296,92,136,9,3,263,75,26,140,124,162,186,83,50,148,38,42,217,104,171,240,64,96,188,88,152,98,89,69,131,95,80,175,159,76,211,132,22,43,113,215,167,196,234,146,16,256,289,72,87,153,57,250,128,45,59,219,53,70,156,170,158,203,247,130,103,111,129,23,46,97,13,183,14,27,206,118,163,105,201,258,274,197,293,187,177,192,143,220,147,205,18,284,213,5,41,176,101,119,115,273,243,269,295,144,25,290,230,207,185,32,155,168,20,265,174,294,282,173,172,1,280,54,239,241,214,49,86,223,242,238,33,121,29,225,91,125,253,81,190,286,138,161,85,154,61,100,270,7,182,77,127,254,184,275,277,259,262,228,222,51,292,139,237,74,179,279,93,94,145,285,287,200,30,141]","50","arrowright","15",""
"","378","canvas-keyboard-response","96","118347","0.0-59.3-0.3-0.3","","","","","",""," ","[284,11,206,208,194,9,117,202,244,156,176,195,165,247,184,113,68,99,222,234,245,250,129,265,61,54,106,133,57,23,149,14,65,243,200,169,28,299,91,283,242,59,196,289,278,209,212,75,147,126,8,185,51,87,201,224,166,236,84,258,116,218,183,135,290,111,293,288,103,114,225,32,241,145,173,179,220,20,66,203,150,69,255,204,248,18,271,286,172,279,47,186,76,24,144,223,74,187,207,285,34,140,38,287,53,41,164,159,294,0,107,81,153,72,282,16,228,121,80,155,40,136,21,105,94,232,237,158,291,177,37,48,36,214,90,141,276,178,122,127,273,270,142,31,249,73,143,233,251,252,132,219,167,58,170,168,7,263,22,102,43,63,138,280,210,238,229,175,295,52,92,78,27,162,46,4,128,45,29,17,77,35,171,118,181,180,93,85,98,261,240,64,275,198,260,266,213,256,50,226,70,272,26,15,83,264,298,125,146,130,277,152,230,235,216,267,13,12,30,221,79,6,95,254,257,1,274,39,269,109,151,86,112,193,25,292,42,154,5,124,259,119,123,67,157,161,217,188,82,215,115,174,88,2,231,108,262,3,44,148,182,211,49,139,101,296,96,137,191,104,55,60,71,199,239,190,227,110,120,197,19,89,192,189,160,268,10,297,56,100,97,246,205,281,131,134,163,253,33,62]","50","arrowright","15",""
"","363","canvas-keyboard-response","97","119031","0.0-59.4-0.4-0.4","","","","","",""," ","[188,42,127,58,2,61,193,87,110,137,97,217,38,144,50,234,256,216,69,200,5,268,128,269,100,136,162,77,41,36,163,213,147,63,266,149,18,6,30,8,39,60,214,187,142,267,40,68,173,177,199,263,298,103,296,27,19,156,26,244,175,102,258,121,245,83,289,249,179,167,235,153,229,160,66,105,280,43,181,14,197,184,196,158,35,93,284,168,49,25,165,231,174,71,299,260,0,114,273,47,237,230,208,283,190,278,265,10,134,164,239,51,169,206,111,257,224,161,24,62,107,189,113,53,182,112,9,123,140,98,45,243,250,117,207,270,195,180,44,259,59,212,272,281,203,3,82,89,7,129,118,133,192,223,34,146,210,119,277,293,191,94,219,171,1,106,86,64,276,17,151,241,67,236,295,246,32,227,254,183,194,288,135,125,85,242,202,159,76,290,91,115,209,37,120,108,54,55,52,79,116,232,75,176,221,251,65,12,70,172,218,88,170,104,152,205,240,247,29,285,279,46,72,16,21,141,185,4,23,145,78,56,253,222,226,262,157,255,80,22,92,57,20,198,11,204,15,155,90,178,109,33,96,31,166,122,154,238,84,291,186,48,225,287,13,201,131,294,150,101,28,138,215,139,74,81,99,228,143,274,261,271,264,73,124,275,211,292,286,282,248,132,95,148,297,252,220,233,126,130]","50","arrowright","15",""
"","361","canvas-keyboard-response","98","119710","0.0-59.5-0.5-0.5","","","","","",""," ","[72,63,16,106,246,111,125,43,168,15,184,148,131,45,40,12,121,206,5,279,94,252,161,2,220,181,46,154,270,271,113,214,240,217,32,293,104,241,152,194,22,274,207,92,211,19,69,296,29,44,25,196,115,112,248,75,59,23,261,6,260,102,197,133,80,132,183,185,84,223,140,35,107,201,203,62,53,81,188,151,175,56,77,212,60,41,295,230,137,164,242,110,7,42,232,79,31,18,288,9,116,291,129,182,114,65,278,144,237,123,266,85,269,158,187,99,234,257,265,204,64,160,88,68,297,221,3,210,255,27,17,191,73,198,124,280,251,178,108,267,186,180,52,285,262,95,172,247,20,227,231,218,134,90,143,82,174,163,38,277,71,146,1,275,244,135,155,37,74,34,245,193,205,70,165,208,50,166,298,215,233,286,159,48,119,290,253,86,138,259,98,213,202,225,122,10,83,21,13,117,96,268,176,47,236,149,30,177,58,173,256,157,145,156,141,235,282,170,192,195,4,54,200,226,150,36,228,127,28,276,153,273,78,169,97,100,91,272,287,216,89,51,66,254,249,243,238,250,281,101,76,49,222,179,26,0,136,87,229,199,264,120,103,139,284,14,61,67,39,57,171,126,292,190,8,147,258,33,167,105,142,289,294,93,224,130,299,55,109,118,239,128,11,263,24,283,189,162,219,209]","50","arrowright","15",""
"","317","canvas-keyboard-response","99","120357","0.0-59.6-0.6-0.6","","","","","",""," ","[141,85,44,105,263,255,253,0,61,175,27,265,230,134,71,52,186,58,47,282,200,75,262,106,40,235,246,219,149,78,65,39,245,122,139,81,198,283,176,277,119,292,168,77,100,225,274,25,252,91,131,185,146,73,154,264,241,193,123,59,234,218,161,127,189,42,215,290,214,110,166,22,242,270,16,89,64,152,261,51,37,271,192,244,111,178,9,32,210,227,97,56,184,202,211,269,260,267,2,177,179,54,82,114,172,48,276,183,107,92,55,63,90,126,98,285,94,220,99,13,67,53,15,14,167,28,221,247,130,239,278,30,162,12,129,8,62,187,142,83,109,295,191,284,49,6,80,294,273,206,43,266,287,137,20,87,291,124,102,163,4,140,248,173,34,223,84,171,24,1,190,45,208,76,279,181,156,117,254,35,188,236,207,238,19,143,26,68,33,286,72,103,138,170,209,272,196,115,224,249,197,17,243,88,112,70,41,69,299,213,120,60,165,226,133,57,281,113,125,250,258,212,7,18,195,147,132,29,93,296,144,297,231,203,174,204,257,38,3,157,164,145,10,201,160,180,298,155,256,182,240,31,21,159,95,222,104,23,158,148,96,5,217,229,228,150,86,169,280,289,74,151,153,268,79,66,251,108,36,259,216,116,205,233,136,194,135,199,288,50,293,128,232,121,46,11,101,275,118,237]","50","arrowright","15",""
"","314","canvas-keyboard-response","100","121011","0.0-59.7-0.7-0.7","","","","","",""," ","[279,105,197,9,275,95,32,141,281,37,144,127,84,210,100,161,130,18,69,63,157,280,272,4,177,282,137,293,117,53,199,253,68,254,262,228,266,79,156,108,180,175,50,94,116,208,276,233,73,230,101,271,82,86,126,150,99,78,213,43,226,89,236,143,195,205,235,56,102,146,201,216,24,183,249,202,13,125,152,214,136,16,163,240,159,274,220,7,193,153,217,247,295,29,192,250,54,38,194,44,11,296,118,212,243,93,287,288,91,265,65,114,223,200,257,6,80,66,28,76,298,237,259,112,120,26,113,128,88,172,196,289,189,297,225,2,256,36,294,72,248,290,103,74,92,269,186,96,58,20,191,182,39,106,85,270,184,215,246,140,198,166,12,124,115,239,229,155,221,25,219,21,190,61,122,71,104,286,232,255,178,3,158,167,245,90,222,109,8,133,19,83,268,299,40,154,142,261,48,59,134,283,273,0,252,67,5,33,27,285,47,244,260,267,227,97,10,110,278,292,135,224,171,51,111,31,211,77,165,52,62,129,123,206,185,121,75,34,46,162,148,41,263,168,164,42,1,151,173,258,147,22,49,209,139,160,55,231,188,174,70,242,238,35,98,218,176,119,87,241,207,14,251,169,264,64,204,30,138,45,284,57,187,179,291,107,181,277,145,234,15,149,23,170,81,203,131,17,132,60]","50","arrowright","15",""
"","361","canvas-keyboard-response","101","121684","0.0-59.8-0.8-0.8","","","","","",""," ","[136,37,147,278,210,48,191,60,158,50,95,186,211,153,246,130,24,182,69,71,96,233,67,129,90,295,151,264,282,44,92,235,223,252,84,286,63,149,3,244,142,45,232,31,270,220,248,228,287,177,195,249,6,227,23,103,79,174,157,139,161,7,156,4,80,141,114,150,155,87,127,193,104,219,46,115,291,77,107,179,225,169,201,197,164,293,89,85,192,154,180,165,215,112,226,68,8,128,188,253,55,277,247,261,134,123,116,299,86,221,160,290,184,83,257,18,239,118,105,296,65,200,263,9,237,12,13,143,39,208,144,206,260,43,207,22,28,94,254,88,256,133,52,267,101,217,284,26,51,222,285,97,38,126,102,113,262,166,32,280,27,121,234,100,124,204,66,289,250,213,214,297,268,194,159,49,16,59,57,29,0,271,75,273,58,17,119,281,258,173,168,298,259,163,187,241,15,62,202,269,131,53,255,120,276,125,78,74,82,35,205,140,117,146,189,5,275,41,138,1,196,61,294,106,93,145,230,292,175,242,99,25,21,181,76,178,137,20,109,162,203,2,98,10,122,245,272,56,185,288,42,190,216,111,183,14,81,132,11,108,238,19,34,110,170,243,236,212,36,283,231,209,72,240,251,167,40,171,91,33,218,70,73,229,172,274,224,135,47,199,279,54,266,152,198,265,30,148,64,176]","50","arrowright","15",""
"","319","canvas-keyboard-response","102","122334","0.0-59.9-0.9-0.9","","","","","",""," ","[64,282,110,19,5,299,143,228,263,11,36,43,147,100,28,168,231,153,20,69,51,47,145,27,215,101,214,169,124,248,167,91,34,8,66,247,88,15,220,259,74,269,197,180,48,216,129,13,156,85,30,227,24,103,246,262,141,278,195,98,10,176,238,152,76,256,255,265,260,272,118,95,82,62,121,77,251,125,281,158,261,185,108,164,139,157,224,107,35,209,123,60,232,223,172,229,137,207,53,49,9,134,201,294,217,240,189,177,80,245,18,226,142,128,81,94,149,159,239,279,112,71,132,264,219,92,233,178,63,173,206,122,257,23,148,192,213,126,56,89,115,52,190,68,204,113,50,133,166,140,162,87,175,14,293,288,188,111,38,130,136,298,73,285,287,266,187,275,37,267,70,274,250,218,174,244,198,96,12,194,120,114,271,31,221,65,78,61,270,161,46,54,59,249,236,241,211,58,55,144,45,41,17,183,26,138,25,297,109,290,237,2,212,163,179,86,200,93,225,170,135,21,16,165,7,106,171,208,97,39,99,127,296,186,199,252,32,243,3,83,253,181,105,117,184,276,79,284,193,57,104,230,203,268,273,202,6,44,40,116,258,67,29,210,160,151,102,295,33,4,182,72,131,205,196,90,0,235,155,234,84,1,280,42,289,154,222,22,150,75,254,119,283,286,146,277,242,292,191,291]","50","arrowright","15",""
"","381","canvas-keyboard-response","103","123022","0.0-59.10-0.10-0.10","","","","","",""," ","[204,243,81,90,104,198,169,110,141,224,202,261,163,117,68,291,66,102,159,123,130,285,9,216,41,54,38,145,246,56,27,177,223,65,238,2,134,236,148,37,126,137,62,120,255,43,276,128,284,161,209,46,140,266,172,52,242,231,114,84,152,253,256,40,189,247,201,86,61,59,16,94,13,295,160,298,19,244,153,278,80,277,260,210,63,251,175,183,106,20,197,85,237,289,100,146,228,113,191,4,294,23,42,71,83,112,147,139,283,111,207,30,265,162,47,82,185,115,97,132,170,118,229,157,195,45,239,186,250,187,5,258,211,220,74,10,168,254,17,78,64,48,273,125,105,32,89,245,270,144,58,8,190,108,29,76,22,248,233,264,217,214,221,3,287,18,281,88,1,262,286,143,21,136,129,180,280,173,98,165,182,230,299,290,77,51,70,215,96,249,25,67,241,124,149,15,269,292,184,119,203,135,158,166,34,53,181,72,36,227,205,174,194,192,155,222,226,213,44,55,133,73,49,232,167,95,212,188,57,24,131,142,79,208,296,75,272,127,225,91,93,50,156,293,150,200,28,87,263,116,109,206,257,176,69,26,101,235,151,6,274,0,271,60,179,7,279,199,267,252,14,268,122,240,33,103,259,39,99,154,234,219,218,31,275,178,11,171,121,138,92,164,12,282,297,35,193,107,288,196]","50","arrowright","15",""
"","330","canvas-keyboard-response","104","123678","0.0-59.11-0.11-0.11","","","","","",""," ","[70,199,280,73,139,279,103,231,23,216,123,221,252,177,58,111,53,234,230,164,291,159,253,119,104,211,268,289,204,56,267,155,226,108,232,227,132,198,145,269,257,43,66,105,118,274,0,194,150,29,62,95,82,51,128,283,106,263,91,57,238,140,48,141,147,109,285,220,47,32,9,246,240,188,243,239,39,192,31,133,107,131,6,64,214,237,88,219,156,50,101,210,52,55,3,293,84,18,200,100,71,171,166,272,248,223,224,72,7,49,21,277,275,1,236,209,152,45,89,173,271,36,85,260,235,290,175,215,256,250,202,162,287,149,225,218,170,213,14,180,165,294,163,167,99,176,191,8,16,67,169,137,207,148,245,251,2,276,113,282,178,130,138,136,83,11,117,278,30,284,262,102,184,258,265,168,183,241,93,143,182,151,35,112,266,15,10,208,212,242,229,42,5,77,197,142,110,273,144,129,281,25,134,120,26,46,19,81,160,195,254,96,190,116,75,233,217,65,203,34,28,288,122,125,115,61,76,154,27,135,63,17,201,121,146,44,68,299,37,295,92,186,40,179,74,13,181,59,153,193,261,247,33,87,255,114,124,292,187,259,127,157,12,270,296,80,41,228,249,196,98,79,94,90,189,4,60,286,264,24,20,158,22,161,54,38,206,297,222,174,78,205,86,97,126,185,172,298,69,244]","50","arrowright","15",""
"","390","canvas-keyboard-response","105","124383","0.0-59.12-0.12-0.12","","","","","",""," ","[83,146,130,18,179,184,199,50,2,133,149,68,156,160,129,97,1,139,62,15,38,278,96,213,191,29,73,270,268,206,20,107,88,113,26,224,141,43,89,99,222,211,53,196,153,263,163,260,104,45,98,240,59,170,72,275,84,287,61,37,9,22,265,239,54,215,158,21,225,285,80,155,259,256,232,12,197,221,135,90,245,40,253,246,177,110,293,286,71,63,27,249,66,212,271,111,36,169,228,0,74,42,112,159,19,49,7,124,258,4,247,168,147,150,91,217,242,65,13,102,51,140,223,145,52,119,17,209,189,205,105,264,288,32,233,138,33,58,180,78,226,298,116,273,248,277,94,231,136,295,23,152,219,255,208,55,115,267,198,70,173,57,182,67,44,279,132,192,262,60,10,251,165,79,243,106,283,11,175,85,162,120,118,289,202,3,14,131,282,127,25,188,148,281,93,201,30,200,181,220,214,176,167,291,39,252,151,154,190,109,161,261,16,125,227,257,187,296,164,237,103,194,183,143,46,166,82,126,137,272,35,122,69,157,77,142,144,299,266,241,8,86,64,121,195,34,172,28,5,229,290,178,297,216,76,81,87,47,203,56,284,218,280,117,292,123,276,134,193,238,236,24,101,92,294,174,128,254,75,250,186,207,210,185,114,31,95,171,230,274,108,234,100,6,41,48,244,204,235,269]","50","arrowright","15",""
"","297","canvas-keyboard-response","106","125028","0.0-59.13-0.13-0.13","","","","","",""," ","[77,62,253,126,162,198,208,24,58,264,199,238,248,141,166,135,33,71,52,14,152,289,46,117,0,284,78,102,153,244,288,97,137,180,43,40,19,109,89,85,232,74,100,90,39,294,291,26,224,15,212,45,182,239,4,276,175,234,258,21,293,129,171,174,257,86,122,143,189,206,246,5,160,186,123,256,142,42,228,120,240,203,155,190,211,55,38,95,184,41,275,243,297,167,105,233,94,227,63,195,107,99,285,269,251,197,169,110,57,252,17,286,207,259,32,210,8,28,278,213,3,69,67,173,70,223,146,54,111,128,116,214,150,229,22,191,172,247,200,237,299,60,101,37,119,51,16,298,215,138,44,219,266,260,151,96,222,164,187,136,192,118,29,230,127,226,183,161,35,273,121,131,168,103,93,48,47,235,82,265,204,170,270,1,104,156,83,216,274,20,196,36,149,209,75,268,145,113,236,218,220,185,154,241,13,98,134,262,7,79,81,68,61,10,267,80,249,25,130,176,279,225,72,271,53,205,64,221,125,147,6,108,114,282,280,157,194,177,201,272,178,148,133,179,139,65,277,88,283,84,144,254,217,242,255,12,66,261,2,290,76,140,287,202,92,11,34,158,49,263,159,31,295,163,188,18,245,231,73,181,9,30,296,292,56,132,112,59,87,106,115,165,91,124,193,27,23,50,250,281]","50","arrowright","15",""
"","788","canvas-keyboard-response","107","126134","0.0-59.14-0.14-0.14","","","","","","","arrowright","[175,224,233,106,54,141,71,203,73,7,51,156,292,65,80,82,294,230,244,260,20,238,150,145,121,70,96,3,221,64,212,259,113,205,200,124,15,149,4,240,243,0,219,257,216,24,267,189,120,21,273,78,168,25,271,104,59,225,56,266,202,172,57,254,139,46,111,95,256,19,289,226,55,83,9,114,218,152,173,127,164,186,250,118,187,27,39,67,232,158,97,293,171,49,282,179,264,208,28,285,132,8,279,102,217,253,176,98,63,165,265,275,182,13,62,122,52,119,207,166,16,58,103,281,290,11,283,42,72,37,255,107,270,248,17,86,258,190,169,115,287,99,222,288,286,278,299,178,274,128,191,146,50,133,137,101,135,30,297,47,252,177,251,48,247,228,241,147,5,76,90,53,249,167,154,10,26,6,196,163,22,87,291,1,246,81,34,112,125,91,159,123,41,38,100,193,35,138,227,211,272,180,105,261,44,61,153,229,210,209,155,263,36,29,157,201,231,192,69,235,14,12,143,60,45,195,214,131,262,185,84,79,116,88,181,280,198,85,77,66,129,223,136,148,126,236,33,89,130,31,40,237,188,234,183,151,32,277,110,213,93,295,298,269,174,215,140,160,197,284,68,161,43,23,245,142,239,276,74,144,134,220,109,108,170,2,92,94,242,162,206,268,296,75,18,117,204,194,199,184]","50","arrowright","15","true"
"","509","canvas-keyboard-response","108","126961","0.0-60.0-0.0-0.0","","","","","",""," ","[1,104,247,280,35,128,267,289,62,146,227,258,201,17,205,124,132,260,174,70,250,161,68,45,236,282,191,12,94,41,99,162,248,232,131,206,106,28,241,151,255,63,278,58,8,271,285,100,168,16,297,116,6,175,229,187,257,27,123,65,218,270,183,36,155,56,176,137,96,186,213,73,268,296,72,82,67,81,78,9,115,37,299,79,253,217,92,284,185,194,147,291,149,265,64,204,290,169,228,242,95,152,129,46,237,272,219,103,231,216,114,89,224,193,251,109,44,69,53,252,43,150,172,283,211,153,39,130,66,140,30,54,133,202,208,160,134,118,173,277,157,164,215,33,158,139,148,163,288,286,5,23,71,188,210,119,189,207,177,110,0,122,7,269,293,220,90,20,262,182,77,192,238,97,19,295,154,29,225,166,165,57,74,244,13,254,113,266,87,180,52,256,31,105,138,32,111,112,61,93,91,84,230,49,76,107,11,233,21,135,121,25,3,55,292,203,178,38,145,195,190,181,159,136,279,156,60,196,287,126,294,274,24,243,102,15,10,298,127,125,85,14,47,141,26,276,83,214,234,34,86,198,98,2,171,4,80,239,226,264,281,246,263,275,240,197,88,259,120,200,117,249,22,222,179,40,51,199,223,101,42,59,142,212,48,144,245,235,209,50,18,273,75,170,261,221,184,143,108,167]","40","arrowleft","16",""
"","325","canvas-keyboard-response","109","127611","0.0-60.1-0.1-0.1","","","","","",""," ","[148,255,254,187,135,184,268,13,141,86,161,155,136,91,105,248,269,127,211,5,102,95,197,57,6,290,265,282,2,222,32,291,246,62,142,9,230,107,11,276,106,66,271,140,67,200,272,43,93,283,59,261,210,125,143,233,242,208,112,38,292,4,175,192,64,139,239,16,48,274,27,201,54,186,252,72,241,225,33,238,229,169,285,195,45,281,53,84,40,160,1,10,219,31,153,297,41,167,158,152,130,214,286,99,12,262,36,128,73,8,181,82,92,77,52,228,173,120,132,21,35,87,144,217,174,178,137,37,278,97,74,253,116,185,273,267,156,299,129,147,101,118,85,109,205,257,50,34,162,150,119,25,220,263,170,39,215,266,221,209,204,172,196,198,236,275,122,260,90,94,134,224,76,270,96,146,240,295,203,58,293,3,75,235,199,296,89,26,56,232,251,7,14,157,243,193,22,164,81,29,182,264,110,131,288,138,212,279,133,15,218,117,44,191,68,190,30,216,42,206,213,113,165,80,98,114,287,115,88,28,294,124,179,121,69,249,223,231,100,0,189,24,20,103,166,245,104,176,61,244,163,250,149,202,183,126,23,284,247,277,108,234,298,60,259,154,188,111,227,177,226,151,18,168,71,47,49,258,65,159,17,19,289,207,51,78,79,46,55,83,171,180,123,63,194,280,70,256,145,237]","40","arrowleft","16",""
"","372","canvas-keyboard-response","110","128319","0.0-60.2-0.2-0.2","","","","","",""," ","[158,47,226,183,64,77,195,176,29,212,186,149,88,20,276,37,249,86,104,299,114,269,181,216,11,261,44,144,56,79,160,214,239,147,199,202,209,131,175,182,102,117,26,18,84,68,116,113,180,248,13,167,139,48,112,130,42,61,163,268,191,296,259,126,17,162,218,221,194,178,55,46,164,96,173,159,210,50,267,192,109,7,73,264,165,97,31,94,118,184,240,4,32,258,222,43,193,9,49,62,65,177,133,99,279,45,252,207,148,287,235,85,243,156,260,95,227,232,278,237,297,128,135,247,110,76,152,285,298,275,80,59,58,36,92,281,121,129,200,282,38,289,185,53,3,204,245,71,143,291,228,98,66,83,246,229,141,203,263,81,100,15,241,25,170,108,23,273,224,155,198,262,0,257,169,134,150,220,27,233,211,60,219,122,171,154,6,286,82,242,115,255,52,140,166,215,30,111,288,188,8,63,74,274,157,138,75,292,205,151,87,123,208,107,93,230,290,12,14,217,137,10,39,125,277,41,231,172,24,190,70,250,201,168,187,251,57,67,19,1,283,293,174,78,54,5,272,16,295,142,105,206,197,196,265,22,189,236,270,90,223,119,253,89,33,127,101,234,2,225,179,103,120,34,136,72,132,266,106,244,161,153,254,256,28,213,271,124,91,284,294,145,35,238,146,69,280,51,40,21]","40","arrowleft","16",""
"","307","canvas-keyboard-response","111","128942","0.0-60.3-0.3-0.3","","","","","",""," ","[235,122,28,116,252,150,50,52,212,224,218,201,76,158,206,89,162,287,81,14,40,232,254,121,185,36,273,289,223,136,267,131,145,132,253,171,241,78,192,80,144,70,27,82,105,77,13,6,259,258,109,238,271,263,274,99,19,284,205,277,117,11,151,248,247,0,225,138,197,108,91,214,97,256,178,60,269,190,260,58,245,94,246,135,62,127,174,65,236,200,104,179,53,57,262,7,155,293,74,186,26,39,17,299,266,42,153,191,137,188,34,240,48,207,163,54,168,31,229,249,147,270,275,164,134,255,265,84,124,219,10,202,130,233,166,63,93,169,221,278,148,55,226,37,123,272,195,8,106,257,242,296,128,261,294,33,129,215,295,67,243,227,69,142,217,176,208,61,126,3,5,22,172,160,286,203,25,276,30,24,115,251,85,189,157,56,167,170,100,216,18,118,184,32,64,71,194,44,228,114,83,268,250,152,211,15,196,279,75,102,120,2,125,149,165,193,183,29,199,111,143,282,220,204,140,35,46,181,92,161,49,119,175,51,159,101,95,230,86,234,96,23,213,288,182,210,154,292,68,112,280,107,66,88,79,43,113,16,73,173,47,244,9,110,291,231,180,41,187,72,285,298,198,1,133,283,38,209,90,237,21,4,87,290,12,222,45,139,98,239,20,264,156,59,177,146,141,103,281,297]","40","arrowleft","16",""
"","398","canvas-keyboard-response","112","129659","0.0-60.4-0.4-0.4","","","","","",""," ","[77,139,167,102,257,244,267,188,4,131,71,261,152,59,207,70,52,32,89,268,286,134,153,56,23,252,225,211,197,125,6,107,226,18,200,251,33,136,179,35,210,208,245,31,297,270,283,20,127,218,147,66,259,203,110,212,177,88,144,205,39,285,275,260,76,97,149,274,148,165,46,169,247,263,233,105,119,86,290,126,99,118,150,206,48,262,198,255,182,114,44,94,214,57,17,209,256,78,199,258,216,133,7,204,0,158,90,3,239,273,229,79,27,228,246,73,194,156,278,168,160,115,62,16,222,284,13,130,296,243,271,93,248,75,1,55,178,132,181,138,60,145,74,227,154,291,36,195,159,128,174,186,176,223,53,120,238,279,221,236,277,287,82,113,30,185,51,157,2,41,38,103,92,269,8,146,220,175,43,21,101,183,10,111,45,123,104,135,61,29,95,293,151,49,24,81,295,12,170,54,166,280,289,189,299,250,58,40,201,215,140,117,298,15,230,69,121,122,19,63,124,171,265,187,37,22,14,234,65,172,5,180,173,254,28,192,68,217,235,253,240,282,116,137,155,224,85,26,25,163,276,193,294,232,108,34,80,142,83,109,162,129,96,143,272,161,98,9,231,87,190,164,202,42,91,106,196,141,241,219,184,100,288,112,64,50,242,264,213,237,84,191,249,67,292,11,47,281,72,266]","40","arrowleft","16",""
"","984","canvas-keyboard-response","113","130957","0.0-60.5-0.5-0.5","","","","","","","arrowright","[28,217,14,270,182,75,144,186,50,229,138,13,39,156,20,127,21,168,163,33,91,60,236,296,226,164,181,263,249,108,214,276,2,12,25,134,35,264,227,279,147,154,123,269,69,118,128,295,187,286,171,223,8,238,47,297,7,189,31,265,10,206,46,61,239,4,73,34,77,166,192,220,68,175,271,23,198,277,40,18,82,253,30,124,152,88,262,251,6,255,99,250,290,200,1,282,221,278,143,202,133,299,57,106,29,45,260,95,59,268,110,291,87,197,104,196,183,111,67,261,256,89,27,9,184,158,266,86,160,146,63,272,150,94,24,193,224,140,235,258,52,257,167,161,180,37,121,76,246,287,243,38,114,136,188,259,283,74,0,149,245,203,219,148,130,199,17,216,191,237,96,58,157,213,5,85,80,145,11,71,218,64,56,170,26,294,15,233,78,119,72,225,162,79,231,43,122,55,194,105,22,81,248,195,54,169,215,135,53,42,151,126,155,241,289,275,185,173,142,19,159,141,100,240,36,102,252,103,98,179,267,228,281,285,232,293,90,48,207,129,49,120,3,211,204,230,205,201,16,109,254,44,51,209,178,66,284,137,190,84,280,210,116,208,32,176,165,174,212,177,298,172,93,288,292,242,97,131,62,274,92,115,222,101,113,70,153,117,65,132,139,234,107,273,41,112,83,247,125,244]","40","arrowleft","16","false"
"","499","canvas-keyboard-response","114","131781","0.0-61.0-0.0-0.0","","","","","",""," ","[186,55,69,101,290,145,139,170,11,135,228,200,143,292,171,293,97,82,74,54,243,291,284,136,132,271,64,34,269,254,285,115,84,158,149,9,89,253,199,6,193,204,110,57,153,43,242,152,168,188,107,48,128,111,181,175,214,278,250,53,185,259,196,125,222,177,272,0,159,131,32,142,163,90,236,151,258,237,232,247,211,42,73,60,189,75,147,176,127,19,288,299,208,207,126,187,174,61,261,65,144,99,47,257,81,18,36,68,223,20,39,155,93,195,198,265,35,183,146,234,275,14,122,22,227,270,59,235,157,217,72,88,119,123,106,219,298,229,95,210,205,38,172,191,66,45,113,263,251,85,4,273,264,1,108,230,91,8,124,25,130,134,79,137,289,58,190,86,297,216,121,92,166,100,49,244,33,7,40,267,240,239,150,23,246,140,109,252,224,231,213,233,29,112,286,256,192,179,287,238,28,164,221,268,70,161,226,41,26,182,206,80,281,44,294,280,102,78,156,249,114,56,12,277,203,118,103,173,154,62,197,184,225,21,141,51,260,63,283,266,31,50,13,178,37,16,10,262,24,27,295,215,87,212,15,3,71,46,105,194,116,133,76,165,169,98,245,296,138,67,77,148,162,5,96,274,276,220,180,167,201,94,202,83,279,282,117,129,160,218,209,30,52,17,120,104,2,241,248,255]","30","arrowright","17",""
"","323","canvas-keyboard-response","115","132416","0.0-61.1-0.1-0.1","","","","","",""," ","[96,131,248,224,263,204,43,295,282,215,68,214,242,62,10,93,286,122,56,238,165,74,135,194,281,14,99,28,15,172,7,77,287,288,156,177,168,92,203,120,206,5,233,193,272,90,78,143,35,200,270,226,229,251,138,197,132,191,266,170,259,175,262,174,181,150,179,71,244,31,129,210,115,51,75,218,245,48,30,24,89,94,95,299,88,146,125,13,216,23,76,294,9,252,19,213,4,276,246,26,103,72,119,22,8,188,49,45,108,101,159,104,137,133,207,265,279,228,167,154,161,17,171,292,250,222,205,160,278,235,145,260,280,63,87,81,60,33,47,107,147,64,70,187,152,201,256,69,100,53,140,230,130,163,237,247,267,223,29,117,97,37,18,283,121,149,184,50,12,217,82,297,46,110,290,257,39,142,59,255,102,41,155,6,40,79,199,285,126,2,128,243,16,198,157,173,269,202,11,158,38,34,148,232,57,240,271,153,36,134,253,185,55,190,123,219,164,208,182,261,66,124,44,32,106,234,220,113,116,254,180,277,127,239,249,211,178,105,91,176,209,109,21,273,258,166,196,169,139,58,1,183,114,186,298,227,296,20,67,25,274,61,212,118,0,84,3,195,144,27,83,189,54,86,80,264,73,225,293,112,289,231,85,268,98,151,52,42,192,136,275,111,284,141,162,221,241,236,65,291]","30","arrowright","17",""
"","307","canvas-keyboard-response","116","133036","0.0-61.2-0.2-0.2","","","","","",""," ","[226,255,243,41,180,236,181,281,184,29,210,291,208,244,256,298,11,276,63,100,13,240,129,207,200,175,80,9,273,3,299,131,130,178,49,22,7,176,84,283,258,93,259,177,66,39,119,147,168,262,280,45,107,113,232,128,8,204,218,53,65,228,15,275,182,38,284,193,102,12,249,117,14,121,260,234,229,154,79,198,203,140,271,6,31,144,18,194,160,171,197,285,162,27,77,109,127,75,76,48,104,172,211,173,86,187,25,156,192,20,26,217,70,245,40,185,164,241,69,23,289,10,120,278,56,195,219,251,272,149,254,71,59,44,237,24,292,146,242,30,83,167,32,1,0,233,4,72,55,250,88,2,58,199,37,133,33,196,235,290,115,145,125,189,105,157,201,90,220,137,265,209,138,191,227,155,212,94,270,161,186,202,122,139,223,257,215,224,57,111,266,19,126,282,295,267,287,123,5,35,274,151,190,28,116,85,205,230,277,135,42,98,221,62,73,158,50,159,153,183,36,112,169,74,297,87,150,165,132,248,82,238,114,216,134,103,96,89,152,143,253,166,21,108,46,222,263,34,247,142,206,293,170,16,269,91,296,213,101,54,231,61,288,68,64,264,97,110,81,279,188,239,268,43,246,261,47,179,174,294,136,17,92,148,118,78,141,51,95,286,106,124,99,214,67,252,52,225,60,163]","30","arrowright","17",""
