"view_history","rt","trial_type","trial_index","time_elapsed","internal_node_id","response","nodesOrdering","cliqueSize","correctResponse","correctnessOfResponse","presentationNumber"
"[{""page_index"":0,""viewing_time"":1332}]","1332","instructions","0","1333","0.0-0.0","","","","","",""
"","2205","canvas-keyboard-response","1","6210","0.0-1.0-0.0-0.0","arrowleft","[3,9,204,61,181,77,127,147,118,87,105,13,69,210,89,219,217,287,64,138,225,274,80,116,292,18,231,20,207,250,267,216,235,289,19,221,91,96,103,259,130,186,260,244,161,144,93,110,149,111,76,25,94,79,276,156,192,294,257,254,131,214,109,229,53,199,249,133,184,263,37,119,70,293,285,11,271,264,85,58,74,39,6,72,99,5,106,123,224,113,107,198,172,220,151,195,270,73,197,32,84,180,154,265,162,23,4,178,2,166,185,143,223,269,124,246,252,168,117,165,75,182,10,47,213,290,43,55,190,125,179,240,187,142,36,164,266,238,129,283,104,273,114,174,60,227,237,157,232,121,236,206,296,194,175,281,286,171,63,251,120,38,71,193,67,102,247,54,297,148,141,153,173,128,59,205,158,81,1,101,145,12,15,159,22,211,189,40,230,234,275,163,268,134,135,202,278,98,115,208,7,78,228,29,30,86,160,170,122,100,56,88,242,218,200,49,150,50,139,288,239,14,222,17,248,52,243,137,26,97,34,146,279,284,201,167,155,21,112,196,28,92,233,261,83,298,66,48,291,24,136,183,68,272,282,169,42,256,295,253,90,0,45,51,203,62,140,108,41,31,262,132,191,245,126,255,241,95,226,35,177,299,277,215,27,280,209,212,46,65,258,176,152,57,82,16,188,44,33,8]","100","arrowleft","true","0"
"","2030","canvas-keyboard-response","2","10111","0.0-2.0-0.0-0.0","arrowright","[124,260,111,272,160,258,176,1,174,253,120,72,224,157,121,210,131,263,67,136,76,112,183,3,204,277,29,27,4,108,31,38,110,295,100,66,91,71,119,134,11,261,64,135,43,232,18,240,209,207,36,251,35,255,275,46,90,13,63,133,200,114,290,197,298,182,5,123,231,284,274,220,172,299,101,128,44,51,69,162,213,203,140,88,278,149,257,179,248,222,85,215,84,16,83,57,268,216,94,122,82,30,181,70,233,148,238,24,167,221,144,77,95,151,262,20,241,86,194,242,280,25,292,166,113,153,22,152,42,99,156,6,54,155,41,93,118,98,161,276,39,8,243,78,214,137,116,294,256,125,237,52,180,10,102,286,250,9,271,65,249,132,239,247,59,49,177,202,81,191,226,163,245,115,264,146,225,87,107,55,289,68,270,236,143,291,21,189,103,170,129,97,227,287,127,89,154,142,293,26,145,168,186,279,15,212,58,53,187,234,158,56,14,106,150,205,235,40,159,61,45,130,80,285,17,199,169,223,47,126,92,252,219,33,139,184,296,96,60,246,282,138,185,2,259,281,229,273,218,7,178,265,201,171,19,147,198,173,267,104,266,117,188,28,192,230,211,190,75,269,50,23,109,165,175,208,105,0,164,196,62,48,217,244,288,193,73,74,228,79,297,206,37,12,254,32,283,141,195,34]","95","arrowright","true","1"
"","1326","canvas-keyboard-response","3","13279","0.0-3.0-0.0-0.0","arrowleft","[69,127,62,44,229,11,147,173,32,4,265,45,108,227,161,226,78,56,70,133,222,139,240,279,166,41,281,95,111,181,5,231,172,3,211,57,293,34,241,151,216,121,20,122,29,55,92,196,66,9,163,116,298,50,176,194,169,21,136,119,178,284,51,154,105,84,6,42,197,37,134,274,107,251,71,199,165,266,46,75,115,30,103,138,190,118,1,81,87,132,295,259,180,245,273,246,263,94,234,271,48,140,267,114,162,52,125,268,24,186,149,135,17,72,112,35,85,230,179,189,12,63,221,254,232,285,59,54,160,65,16,170,292,40,110,83,28,289,64,256,188,198,158,60,47,250,101,282,10,7,76,286,260,68,225,97,124,258,26,269,238,175,146,77,201,88,150,13,79,208,25,287,235,2,270,253,257,143,100,219,210,126,252,109,53,91,247,148,275,61,82,159,49,104,206,145,290,215,242,102,73,207,205,174,195,291,192,182,168,296,217,200,223,224,99,212,15,255,131,0,123,86,93,117,262,67,137,294,277,177,38,202,228,43,214,167,183,193,58,113,142,157,276,220,89,187,8,191,18,153,144,36,297,27,14,96,249,141,156,272,130,299,171,128,106,278,19,243,248,120,80,129,209,155,22,237,203,261,218,244,204,283,31,152,33,239,74,39,288,236,185,164,23,264,233,184,98,90,213,280]","90","arrowleft","true","2"
"","1950","canvas-keyboard-response","4","17137","0.0-4.0-0.0-0.0","arrowleft","[32,163,29,271,240,180,73,239,154,31,100,123,255,99,219,253,4,1,52,287,121,64,82,131,41,247,265,237,62,37,208,43,80,259,120,185,86,179,256,209,128,94,204,107,96,144,16,254,141,119,87,168,160,210,296,262,81,83,260,298,165,149,216,189,250,103,122,10,174,196,286,25,290,109,45,12,3,34,13,85,267,54,36,130,71,21,191,182,243,106,200,299,170,137,0,242,263,18,118,126,152,293,227,147,172,188,2,84,132,139,28,285,214,72,232,6,98,197,295,199,186,20,134,257,17,157,56,113,88,125,93,124,241,151,184,281,44,24,79,68,66,276,294,138,30,76,205,5,217,268,77,274,166,33,273,288,236,159,291,289,95,22,74,244,104,192,38,105,59,162,7,129,181,175,269,49,211,223,194,252,161,60,58,212,230,202,171,11,115,283,26,57,153,178,91,40,245,195,258,116,150,110,246,146,167,148,238,8,183,264,42,65,173,221,145,108,140,229,136,92,278,213,75,206,23,112,224,218,135,277,190,63,261,207,97,9,89,158,280,228,127,90,266,222,50,111,114,231,292,46,233,133,251,164,193,15,177,215,284,176,27,248,101,55,272,249,203,234,69,198,226,53,297,35,142,14,275,48,220,39,270,279,169,102,225,51,19,201,143,235,156,47,61,117,67,78,282,155,187,70]","85","arrowleft","true","3"
"","4776","canvas-keyboard-response","5","23772","0.0-5.0-0.0-0.0","arrowleft","[5,280,49,130,57,254,80,151,37,44,113,25,193,281,152,144,285,78,230,167,168,128,267,208,198,232,183,295,72,166,54,292,96,116,53,259,177,32,81,51,93,102,171,260,141,63,6,181,222,134,298,77,209,75,173,133,58,178,269,56,10,223,124,157,150,236,241,84,100,165,117,104,105,34,286,255,207,192,26,274,129,107,66,186,15,279,62,201,125,278,216,213,13,275,266,253,65,243,215,111,16,154,245,202,28,1,52,258,109,162,88,219,172,85,38,110,21,244,226,27,185,31,87,36,268,210,148,199,7,35,135,289,256,249,287,8,214,174,299,119,45,114,293,146,46,228,196,257,175,138,204,212,92,227,247,176,234,265,149,224,197,50,229,115,42,140,180,145,20,98,67,206,33,252,136,288,123,195,194,239,231,184,103,225,11,200,69,153,79,147,97,86,235,220,273,262,284,95,43,24,290,23,294,163,106,240,59,189,126,18,112,68,39,118,159,83,272,296,12,14,17,142,143,2,48,218,282,3,101,61,155,122,4,164,41,158,263,90,217,89,156,190,76,19,160,291,132,29,233,40,276,22,0,139,74,250,283,121,277,170,70,60,182,73,64,161,238,30,99,91,120,169,55,94,191,71,131,261,108,47,248,297,242,251,270,127,221,82,9,187,237,188,203,179,137,205,271,246,211,264]","80","arrowleft","true","4"
"","1900","canvas-keyboard-response","6","27542","0.0-6.0-0.0-0.0","arrowleft","[205,53,254,6,20,139,135,61,32,76,40,273,215,126,114,236,45,181,4,27,224,137,286,190,216,86,81,228,247,118,58,152,70,125,297,176,183,196,3,274,279,276,241,72,202,234,268,128,191,150,185,258,280,26,87,99,214,171,221,200,154,119,67,213,55,131,29,177,192,8,172,46,68,210,293,208,113,230,289,18,78,106,117,83,222,105,75,124,24,65,179,48,133,1,256,238,159,33,17,11,173,197,170,164,223,251,198,174,144,163,104,31,250,56,21,142,282,100,14,85,73,82,96,237,193,178,283,291,141,63,84,43,252,148,64,88,80,165,239,288,127,101,160,266,69,30,211,0,180,277,206,265,134,66,146,103,168,23,275,166,260,28,262,37,248,188,97,93,264,115,42,281,130,89,199,298,219,294,261,244,187,36,38,292,240,110,271,49,184,186,269,98,5,284,156,44,7,15,120,54,218,149,195,201,50,112,47,253,245,257,92,108,136,60,287,13,278,143,41,140,204,209,233,19,232,299,203,52,94,138,169,270,161,116,2,249,157,62,25,22,227,57,267,259,111,59,79,235,226,242,16,10,132,194,95,109,243,158,217,35,220,77,102,229,295,155,162,147,255,51,71,91,182,175,225,123,212,207,39,285,290,74,231,122,151,107,90,34,145,129,167,263,272,9,121,189,153,12,246,296]","75","arrowleft","true","5"
"","1880","canvas-keyboard-response","7","31299","0.0-7.0-0.0-0.0","arrowleft","[265,139,69,54,144,156,299,97,47,207,29,102,33,115,222,160,271,14,231,157,272,88,264,149,274,232,36,4,75,7,93,67,55,263,5,269,295,101,128,177,291,188,118,86,210,239,109,12,233,1,183,145,163,220,65,178,270,143,98,64,6,50,22,48,73,152,136,126,89,200,99,275,159,87,284,117,30,164,133,251,255,74,123,107,71,58,76,106,226,52,185,234,224,249,262,237,247,204,192,230,62,26,292,57,212,235,84,120,186,140,279,68,61,298,53,193,45,38,257,34,148,289,112,241,81,253,199,236,248,225,254,114,215,168,42,165,137,138,281,195,70,129,110,72,153,203,228,39,108,134,31,18,276,154,158,277,10,105,104,150,20,268,182,103,179,130,267,151,170,214,176,8,113,205,44,59,227,116,21,206,216,238,258,63,24,293,2,122,132,131,211,125,46,273,16,296,256,196,94,127,245,217,202,15,9,184,27,285,25,147,96,49,169,244,266,79,167,32,198,201,223,83,221,173,250,171,51,290,80,278,191,85,174,180,197,243,161,17,3,242,175,146,90,66,11,40,294,19,213,297,92,172,95,287,37,209,282,124,91,259,56,181,252,155,260,162,43,28,208,190,78,189,0,23,60,121,240,229,283,141,280,261,100,166,13,288,82,135,41,218,219,142,187,286,246,119,111,35,194,77]","70","arrowleft","true","6"
"","2125","canvas-keyboard-response","8","35302","0.0-8.0-0.0-0.0"," ","[162,159,286,194,233,265,176,83,59,276,161,98,190,50,220,70,191,208,17,107,192,11,101,168,219,212,40,32,231,66,227,209,134,82,13,243,294,267,116,51,274,42,136,127,292,31,175,86,177,20,69,130,211,236,299,293,131,252,223,151,262,264,224,250,103,84,109,256,214,30,22,201,174,178,150,183,280,287,140,110,1,108,71,153,216,24,96,54,255,72,25,77,179,19,186,61,275,6,64,284,52,210,246,283,295,291,60,241,288,142,281,254,169,18,245,225,165,205,207,36,221,144,58,90,26,119,14,203,2,135,5,35,146,196,184,257,206,27,173,89,7,4,76,15,182,289,296,181,222,149,106,94,247,113,12,111,237,204,228,126,298,117,238,198,251,273,185,57,137,229,240,285,118,67,100,92,123,189,195,187,91,97,170,171,93,44,99,9,158,297,259,235,104,141,120,80,199,8,269,38,132,277,234,239,200,268,68,49,29,217,263,197,290,47,79,105,163,160,87,128,129,155,278,260,156,55,43,124,62,226,10,56,266,282,115,138,202,95,88,33,46,272,139,65,271,218,258,172,167,48,41,122,0,230,232,157,63,21,81,261,164,213,23,193,16,73,39,74,253,75,188,249,85,270,114,152,279,133,248,148,145,34,28,143,147,78,125,244,3,112,215,166,102,53,37,154,242,180,121,45]","65","arrowleft","","7"
"","1005","canvas-keyboard-response","9","38154","0.0-8.1-0.1-0.1"," ","[260,223,210,276,234,138,130,247,163,11,227,131,99,52,26,248,29,258,144,142,56,95,285,184,34,246,212,238,112,13,236,98,164,196,116,282,97,191,287,207,57,4,190,218,60,204,263,65,141,87,250,89,61,18,231,42,284,186,133,151,274,221,104,183,102,25,201,50,156,179,253,203,6,83,32,230,16,294,35,118,169,220,214,67,299,267,273,176,262,217,148,40,136,222,9,181,120,281,251,94,107,279,10,177,146,110,90,152,290,101,14,66,216,106,80,111,124,200,215,17,79,37,126,1,143,62,147,264,135,237,175,171,259,78,268,233,8,189,178,292,266,129,88,193,235,77,122,100,128,127,86,199,59,167,123,55,202,213,172,288,239,24,38,117,82,261,81,47,28,70,43,51,154,289,240,58,162,252,297,108,265,30,241,275,296,208,153,182,27,105,245,54,205,286,92,22,125,159,211,219,187,69,119,46,64,272,134,280,226,185,295,271,192,93,157,72,23,174,165,149,140,2,20,7,12,257,255,84,188,254,161,249,49,109,228,155,180,293,53,21,121,224,48,225,96,39,139,5,63,194,244,19,298,173,277,91,229,115,74,160,278,132,68,114,31,145,256,45,283,158,137,168,232,0,206,198,15,197,170,73,150,291,166,44,113,3,76,103,36,85,243,71,33,75,195,270,242,41,269,209]","65","arrowleft","","7"
"","669","canvas-keyboard-response","10","40731","0.0-8.2-0.2-0.2","arrowleft","[293,55,38,261,97,156,157,119,49,231,282,292,18,239,71,168,284,114,191,6,88,298,60,279,17,264,171,19,169,299,20,257,243,158,10,133,212,142,198,161,70,61,136,206,95,99,46,72,64,37,177,269,137,195,295,262,201,226,4,22,225,126,31,47,275,118,68,131,294,223,192,255,104,83,110,75,278,143,85,11,283,211,129,139,92,193,184,208,237,190,185,108,204,175,160,76,149,41,12,241,107,122,105,288,197,87,65,112,150,113,124,240,58,186,291,214,154,199,165,16,247,266,210,74,296,187,277,265,24,127,147,123,180,9,98,125,59,2,56,286,188,219,167,52,200,132,81,182,271,173,227,148,21,84,86,246,281,51,53,221,222,63,259,91,181,166,34,141,102,254,50,155,209,220,178,146,170,145,13,232,250,153,202,121,111,216,249,235,117,40,138,217,62,26,289,42,135,272,194,242,89,48,268,163,128,159,229,130,45,270,28,252,44,54,57,14,207,183,90,256,35,213,27,215,80,96,260,189,134,3,106,274,82,174,230,236,78,73,258,15,151,253,32,297,29,203,69,1,79,23,115,234,244,0,30,93,233,276,287,267,5,77,25,103,162,101,179,33,66,109,94,238,7,176,273,285,205,144,116,196,8,172,228,248,245,39,140,224,36,218,43,290,152,263,120,100,251,280,67,164]","65","arrowleft","true","7"
"","1597","canvas-keyboard-response","11","44238","0.0-9.0-0.0-0.0"," ","[204,178,246,263,90,160,59,23,180,152,11,276,41,96,74,238,179,188,225,181,68,103,240,233,165,295,86,110,281,253,46,144,61,252,220,76,128,18,192,207,126,36,174,113,42,168,217,227,151,115,224,155,16,51,94,138,170,35,53,149,173,125,213,182,270,237,77,105,169,171,140,84,228,67,127,25,284,278,223,31,69,280,130,235,202,17,184,24,80,242,58,283,191,65,258,249,282,89,131,248,26,30,211,260,142,83,122,231,135,232,221,218,136,176,206,265,50,5,20,145,99,153,266,292,285,57,148,120,143,108,133,8,288,13,294,216,241,251,85,72,186,63,297,219,210,198,250,0,177,264,199,109,15,156,124,28,159,256,146,261,269,82,49,212,92,245,7,38,244,98,19,277,296,64,9,78,60,194,6,75,167,91,95,93,44,273,154,71,247,163,54,48,55,197,137,230,291,102,112,268,10,255,254,201,293,166,195,37,116,189,236,70,43,21,271,111,121,81,123,226,119,129,208,106,134,147,275,56,29,187,139,88,107,209,100,101,22,274,289,286,157,164,161,298,2,290,162,33,175,1,104,132,185,205,287,118,262,87,45,196,150,47,141,183,4,243,190,14,259,27,39,12,215,66,73,229,222,79,214,203,62,193,34,200,52,267,279,172,3,158,299,272,234,239,114,32,257,97,40,117]","60","arrowright","","8"
"","1400","canvas-keyboard-response","12","47497","0.0-9.1-0.1-0.1","arrowright","[211,289,80,53,192,295,195,30,88,258,122,3,137,250,17,2,232,165,181,161,275,227,131,167,286,8,62,203,153,78,120,155,243,84,117,81,246,129,231,160,126,142,127,226,22,50,253,52,0,72,186,248,274,217,47,35,79,264,219,267,6,298,91,148,268,26,63,67,208,29,214,135,190,173,193,121,20,270,144,187,10,82,23,168,71,240,64,254,45,101,285,60,176,31,233,59,15,269,12,279,25,182,245,273,170,87,70,239,257,223,150,197,143,247,292,16,260,113,280,38,196,34,28,277,189,114,235,18,56,236,107,202,92,109,218,128,263,39,266,220,11,108,163,299,272,7,73,194,116,75,166,265,225,89,229,134,284,234,255,61,99,278,149,102,252,259,291,200,118,138,221,224,177,151,83,133,212,124,40,158,48,294,162,175,209,21,228,288,230,1,14,139,180,159,111,172,261,27,238,105,42,58,132,222,293,97,215,90,51,145,55,136,242,169,86,4,287,171,5,216,130,201,210,282,37,24,191,205,85,32,199,206,36,188,98,100,94,157,204,183,44,207,66,178,103,244,96,33,125,174,57,154,237,184,276,115,95,13,104,213,185,46,43,112,164,147,9,251,297,93,69,283,140,198,241,68,19,281,141,249,119,106,262,54,296,179,152,146,290,271,65,123,49,156,76,41,110,74,77,256]","60","arrowright","true","8"
"","1166","canvas-keyboard-response","13","50545","0.0-10.0-0.0-0.0"," ","[276,293,258,196,270,179,57,84,200,5,132,92,218,254,117,265,271,2,120,207,151,63,161,143,226,71,98,86,62,214,41,65,104,58,102,87,82,296,252,32,106,267,190,163,123,12,124,239,61,183,1,3,286,241,192,223,277,6,90,201,150,93,238,111,67,160,26,125,172,243,68,176,79,166,133,105,29,186,287,282,140,33,244,59,134,245,279,25,42,69,289,203,138,187,273,212,284,129,171,290,114,198,291,43,295,165,119,10,146,16,294,168,250,193,83,46,213,180,50,52,240,136,139,208,222,211,15,116,149,27,255,77,44,45,224,174,127,34,188,191,225,152,14,230,169,159,118,229,66,178,28,17,103,126,185,153,235,38,158,11,275,89,145,80,292,128,54,7,242,216,70,298,195,76,181,297,209,248,0,197,278,147,221,95,73,251,75,204,49,148,81,74,48,175,35,219,20,40,113,121,162,177,288,220,206,101,249,259,18,157,264,108,268,237,122,64,184,272,137,47,96,37,253,182,23,156,141,299,257,56,8,164,31,199,131,210,110,236,144,9,234,262,263,205,78,194,246,100,94,19,217,91,142,107,36,281,155,227,154,30,232,274,202,233,85,215,88,13,170,269,55,51,130,53,39,260,24,266,173,60,4,283,135,115,261,72,189,228,231,22,247,112,285,21,109,280,167,99,256,97]","55","arrowleft","","9"
"","767","canvas-keyboard-response","14","53481","0.0-10.1-0.1-0.1"," ","[69,234,52,180,43,200,292,226,298,220,170,53,105,73,247,275,111,291,210,101,269,276,32,258,106,64,214,148,185,168,239,98,205,99,218,260,34,257,204,83,124,208,273,166,151,194,154,130,12,283,9,142,238,184,250,31,72,39,193,288,290,74,266,46,224,163,143,115,103,80,118,209,264,109,55,21,259,261,230,18,16,270,171,44,93,2,285,108,183,178,104,179,128,213,36,40,96,20,254,284,165,27,271,228,222,265,26,173,23,268,41,91,256,229,82,30,198,155,149,138,221,172,88,182,87,215,56,277,114,79,51,174,231,252,241,294,235,212,63,54,81,240,37,131,216,71,162,1,161,150,245,4,134,262,299,206,282,85,49,267,50,90,47,117,135,187,248,86,112,255,11,67,236,159,48,146,62,157,197,243,78,113,95,274,107,177,207,211,175,158,263,141,8,156,76,13,100,186,160,17,126,7,295,59,297,140,35,232,286,227,132,75,253,293,125,68,137,139,251,281,22,147,129,60,164,19,225,123,145,33,110,119,25,167,202,3,287,153,94,5,219,188,84,280,192,45,152,201,233,289,65,116,38,203,127,6,196,237,10,14,199,92,66,242,29,195,61,102,144,121,191,42,77,120,272,133,244,70,190,24,122,0,279,15,189,296,169,58,181,278,89,217,176,223,246,249,97,136,28,57]","55","arrowleft","","9"
"","1416","canvas-keyboard-response","15","57531","0.0-10.2-0.2-0.2","arrowright","[184,206,90,54,299,273,131,288,58,118,24,225,147,171,259,13,244,111,234,168,5,124,269,64,0,250,193,231,88,95,145,161,104,2,14,226,209,53,257,243,155,37,291,75,119,137,228,183,205,125,253,30,268,283,229,169,173,4,56,160,178,202,252,42,136,194,177,69,148,114,236,272,246,110,153,17,135,93,55,150,81,176,191,220,296,63,241,100,211,289,92,139,157,242,98,235,22,185,127,195,263,188,245,165,240,210,152,247,276,216,159,70,107,293,60,172,251,33,295,23,74,1,279,212,21,87,41,249,84,65,94,138,256,6,79,218,89,43,126,280,262,221,180,186,204,80,57,162,113,76,274,281,284,187,40,297,260,270,77,175,190,158,170,134,261,132,167,181,164,101,7,154,203,68,61,27,219,20,265,29,239,16,146,258,35,9,298,67,215,129,116,271,122,10,28,46,49,48,248,72,120,59,208,174,8,278,82,117,34,214,254,133,227,264,182,12,102,166,199,201,112,121,143,128,149,108,213,15,196,47,282,179,237,267,25,266,163,238,85,109,36,105,198,106,66,51,292,19,103,78,224,115,52,130,223,151,230,192,255,217,99,97,44,197,142,277,287,62,11,207,144,200,285,275,290,140,31,141,233,83,91,189,156,18,86,222,38,32,50,45,294,71,232,39,96,26,73,3,286,123]","55","arrowleft","false","9"
"","1510","canvas-keyboard-response","16","61332","0.0-11.0-0.0-0.0"," ","[90,125,291,74,82,37,80,234,238,160,137,187,107,154,24,79,271,129,135,286,202,168,251,242,16,188,120,166,195,237,136,255,7,217,57,68,117,182,284,73,270,206,263,32,128,229,140,172,44,22,153,26,28,66,93,248,75,279,69,94,112,49,89,159,200,23,114,6,98,72,293,21,156,81,13,276,179,183,230,181,106,60,231,19,35,222,91,61,96,285,76,287,11,167,274,262,15,33,27,25,55,122,58,152,178,277,211,87,191,212,67,43,175,101,4,203,130,109,151,155,189,127,225,88,142,47,275,105,205,17,173,299,265,119,268,290,95,162,190,235,143,210,288,34,1,85,254,46,126,243,176,227,226,144,100,233,102,50,282,193,177,71,273,8,204,51,39,108,116,259,147,241,228,124,208,246,62,281,146,38,198,9,170,278,0,97,118,56,31,29,283,45,267,5,174,63,201,53,77,14,240,161,134,132,221,70,247,289,2,169,64,99,209,36,295,41,20,121,110,3,213,280,196,164,197,186,163,232,185,158,220,245,139,12,48,138,239,250,150,165,18,131,104,253,103,260,236,266,264,84,296,192,292,249,157,219,216,298,92,54,180,86,194,199,224,261,272,257,123,40,252,59,115,214,42,10,269,52,30,218,111,223,113,145,171,184,258,78,215,148,133,65,244,207,256,294,149,141,83,297]","50","arrowleft","","10"
"","900","canvas-keyboard-response","17","64471","0.0-11.1-0.1-0.1","arrowleft","[67,9,74,111,241,154,118,12,248,262,167,229,278,178,267,7,110,145,280,119,284,80,174,99,226,109,93,150,217,292,257,269,235,168,2,201,291,76,33,175,8,41,138,172,151,296,236,140,61,97,58,102,230,179,254,285,279,232,276,149,196,48,63,81,163,247,249,238,215,142,293,117,27,133,56,268,213,51,184,34,5,75,88,242,72,82,286,66,146,31,181,182,222,0,275,128,47,298,219,176,283,295,15,104,113,177,224,192,134,69,70,265,234,209,115,263,153,264,96,60,135,205,246,297,216,10,251,57,37,87,277,148,16,84,19,186,50,54,89,127,166,103,4,225,6,198,32,100,220,17,170,227,231,244,282,252,24,92,159,157,171,152,158,194,85,3,123,193,156,112,105,94,62,78,95,207,126,144,260,195,141,202,98,68,132,23,237,52,228,272,90,274,125,233,266,199,245,289,35,214,212,25,22,221,147,20,255,46,161,86,288,253,18,169,11,40,21,120,185,143,14,270,162,65,83,137,259,208,59,77,180,191,223,124,206,43,164,73,243,121,299,204,218,130,55,28,294,190,273,129,44,287,91,29,42,49,250,200,114,183,165,30,71,203,139,155,136,173,122,210,290,197,38,108,160,13,39,64,53,79,258,211,281,106,271,131,45,101,189,116,239,240,261,1,107,256,36,26,188,187]","50","arrowleft","true","10"
"","1796","canvas-keyboard-response","18","68668","0.0-12.0-0.0-0.0"," ","[195,232,116,57,66,266,219,77,228,7,253,288,291,192,23,257,2,153,177,204,16,97,1,247,265,256,164,255,206,61,39,194,270,240,67,267,131,208,88,169,277,258,239,221,207,37,188,154,285,172,102,85,272,226,113,5,41,218,145,59,230,115,211,201,70,0,284,167,134,227,92,205,4,264,99,17,200,222,79,139,40,31,55,75,43,114,231,95,19,166,199,246,242,28,107,36,275,80,84,215,276,120,91,118,148,174,111,152,9,190,69,268,269,73,50,13,259,292,110,156,121,119,54,184,12,178,11,186,112,185,160,274,86,280,202,105,62,52,283,8,225,14,132,21,252,237,278,180,126,163,45,295,94,140,151,56,173,143,203,30,25,149,22,128,47,210,104,290,168,183,10,29,251,64,27,217,263,68,212,234,244,137,127,108,261,3,109,76,81,175,287,193,271,157,129,96,147,286,103,122,198,34,82,158,297,63,133,191,18,182,187,279,98,144,72,197,150,155,146,214,87,161,58,142,196,124,236,78,250,125,220,260,223,42,49,101,38,159,245,233,299,44,141,51,123,33,24,15,170,262,235,216,89,106,90,165,189,83,171,282,238,281,179,74,224,243,130,135,32,241,20,162,138,46,117,229,213,93,65,254,294,35,6,293,176,273,296,209,100,181,48,136,60,26,248,298,289,71,249,53]","45","arrowleft","","11"
"","923","canvas-keyboard-response","19","71639","0.0-12.1-0.1-0.1","arrowleft","[202,210,225,80,50,290,259,150,203,193,100,213,252,114,45,82,136,245,1,241,113,232,148,261,35,120,268,244,250,69,273,41,16,205,214,28,87,6,204,265,60,297,20,221,256,122,29,49,166,217,0,233,152,23,228,175,162,94,185,31,86,167,61,231,289,234,227,68,188,146,107,220,264,130,103,119,129,258,196,184,251,174,192,200,226,212,93,38,90,172,165,207,77,181,247,153,37,235,74,64,194,246,59,53,272,75,125,18,112,24,151,161,11,133,132,97,10,179,52,288,270,101,46,105,173,257,171,177,57,182,13,34,230,236,222,27,215,239,187,71,169,40,195,76,142,131,95,9,164,269,106,254,284,281,115,72,143,36,42,159,176,294,108,160,168,89,96,186,39,44,116,286,190,138,99,283,123,121,266,109,277,126,127,47,33,117,118,21,249,280,124,145,298,296,206,278,51,223,78,197,32,15,147,211,140,144,7,255,85,65,293,17,295,238,8,62,155,55,25,183,279,92,84,139,137,4,163,275,81,98,102,56,282,63,287,83,243,128,3,104,110,134,66,271,91,260,26,19,263,2,157,154,262,216,253,209,201,276,242,48,191,88,5,70,43,178,58,229,111,54,170,156,199,224,267,292,180,12,67,189,22,299,149,30,14,274,135,219,248,79,141,208,240,158,291,237,198,218,285,73]","45","arrowleft","true","11"
"","3277","canvas-keyboard-response","20","77337","0.0-13.0-0.0-0.0"," ","[117,168,169,289,144,126,129,261,149,4,218,61,164,237,73,130,274,241,100,290,55,202,70,224,152,220,177,2,124,233,38,150,58,80,280,214,95,63,83,17,145,267,78,178,204,3,115,108,201,197,1,53,285,250,253,188,191,33,109,154,225,240,271,79,216,184,96,228,235,262,99,135,74,187,137,251,122,140,193,272,19,75,0,200,5,76,103,81,65,23,97,8,236,232,25,52,132,160,213,230,273,142,158,259,34,288,60,82,44,49,166,90,275,242,217,89,30,222,113,278,192,10,269,185,50,101,199,159,257,85,151,16,110,239,189,36,161,219,157,35,264,248,29,59,139,72,12,238,18,102,106,155,186,208,88,176,209,163,14,162,47,226,174,136,66,265,147,134,39,105,175,24,167,266,125,210,181,277,141,112,170,190,46,287,26,87,69,206,71,298,40,256,198,94,215,270,182,244,173,6,32,146,294,282,203,7,43,246,45,205,212,111,211,119,56,98,165,31,293,234,51,263,194,118,114,107,48,9,260,62,68,279,281,196,86,171,229,195,13,284,54,243,172,41,22,247,133,121,116,286,120,297,223,128,37,283,138,227,64,92,179,180,15,231,127,21,221,104,296,183,268,255,153,11,291,123,143,42,27,254,292,249,84,207,299,91,245,77,156,295,258,148,67,93,131,252,28,20,276,57]","40","arrowright","","12"
"","1017","canvas-keyboard-response","21","80171","0.0-13.1-0.1-0.1"," ","[275,54,109,130,5,146,188,76,58,220,123,75,3,154,261,105,278,199,39,296,33,294,0,143,25,204,113,31,217,22,231,160,293,29,151,205,14,129,203,234,173,116,256,156,247,211,273,224,20,98,37,121,271,260,57,297,112,148,291,187,178,215,93,169,1,91,80,10,77,237,239,34,221,68,241,287,186,95,209,100,18,136,19,67,295,252,41,181,272,6,13,43,155,214,222,72,125,74,126,206,122,161,16,167,192,23,44,218,115,27,81,274,9,245,114,85,277,101,128,65,62,255,21,53,201,153,60,236,49,87,99,244,64,179,137,268,243,88,253,189,175,104,298,40,258,290,254,284,47,281,171,228,150,117,28,48,78,213,279,248,289,55,263,269,131,17,134,158,89,127,52,168,164,184,249,149,246,138,166,182,56,162,45,111,69,119,132,267,259,210,232,63,140,26,30,24,32,257,133,172,285,176,42,200,135,233,90,59,226,46,288,106,242,202,197,198,8,163,50,235,12,195,282,177,139,124,229,270,108,110,280,73,193,71,83,180,120,299,223,141,152,107,79,286,102,251,194,157,147,94,96,196,240,216,283,262,145,144,264,225,142,70,61,84,266,11,15,36,7,103,207,4,230,97,212,86,208,250,191,82,265,170,38,190,118,165,276,185,92,35,238,159,2,227,292,51,66,183,174,219]","40","arrowright","","12"
"","804","canvas-keyboard-response","22","82871","0.0-13.2-0.2-0.2","arrowright","[160,31,20,12,62,120,260,108,258,280,13,262,294,151,190,89,83,212,289,43,121,141,95,73,238,53,199,179,97,21,188,82,128,123,135,125,76,198,196,74,180,275,219,116,14,249,299,88,277,189,124,94,122,35,259,178,263,61,112,38,111,113,47,281,55,75,187,293,232,86,40,28,267,54,68,290,34,215,170,173,63,17,244,11,166,164,72,51,224,114,26,217,32,106,272,285,246,200,243,202,266,197,220,4,130,78,142,271,175,287,206,177,41,211,48,257,129,147,80,171,30,247,22,288,193,146,174,161,167,248,264,105,39,33,250,214,144,149,25,2,66,284,69,255,222,23,233,91,67,19,115,145,148,237,24,7,270,191,140,126,254,85,228,194,291,46,268,79,279,64,269,5,152,139,165,155,92,58,225,117,136,138,241,42,209,162,18,223,133,176,231,201,208,210,132,182,158,227,3,265,185,90,100,9,1,71,273,159,236,186,143,163,157,282,127,50,153,298,119,77,297,226,93,36,245,70,10,252,283,150,183,295,131,204,286,96,195,169,45,137,221,52,104,172,102,234,256,192,101,274,15,56,110,242,261,296,207,29,240,27,98,6,154,0,8,16,107,99,181,184,103,216,292,118,156,134,278,168,37,59,49,109,205,235,253,213,218,44,251,239,230,60,276,84,81,57,87,229,203,65]","40","arrowright","true","12"
"","165","canvas-keyboard-response","23","84992","0.0-14.0-0.0-0.0"," ","[31,93,206,181,129,216,157,293,178,298,106,24,118,78,156,270,257,69,265,267,158,87,76,37,210,130,34,294,102,1,135,171,147,209,101,30,126,25,179,20,28,230,180,73,202,81,50,232,148,262,15,83,292,127,152,119,36,94,291,72,167,284,110,2,245,223,11,248,114,18,289,233,64,115,91,86,280,159,278,177,16,246,253,215,67,32,62,259,256,5,192,125,161,137,46,266,26,281,61,277,155,47,90,288,139,80,164,201,236,132,220,183,74,44,4,98,59,238,144,123,53,82,190,243,226,186,204,203,52,173,285,143,12,100,57,35,198,116,200,163,134,175,29,166,241,10,221,195,217,131,176,149,197,170,196,9,63,141,187,79,60,194,54,212,48,213,299,112,276,258,242,96,0,271,185,191,120,142,211,99,174,27,182,85,154,133,153,51,17,165,254,224,7,107,231,227,124,268,184,45,33,6,244,237,199,56,39,168,273,42,260,121,70,23,261,255,146,14,234,269,109,188,58,239,43,84,71,287,290,140,189,75,275,65,22,272,55,38,40,122,208,251,193,3,92,136,169,104,240,297,295,128,282,21,19,138,111,205,172,117,77,286,249,150,160,95,41,250,108,279,263,13,228,283,225,214,222,145,88,274,247,8,264,113,207,235,252,219,151,49,218,162,296,103,97,68,229,66,105,89]","35","arrowleft","","13"
"","67","canvas-keyboard-response","24","87910","0.0-14.1-0.1-0.1"," ","[55,44,162,42,173,155,156,252,52,158,209,292,46,281,262,14,5,39,144,103,157,192,283,242,140,1,38,225,196,117,132,12,136,203,264,253,258,4,277,191,73,19,70,36,228,137,83,145,186,64,104,159,185,72,128,278,13,224,88,232,219,45,269,8,66,82,134,115,107,2,97,124,287,260,63,285,47,178,20,211,233,68,51,193,197,245,194,27,198,6,131,201,108,142,78,141,23,273,62,229,161,234,261,256,274,53,113,81,29,241,297,180,7,118,204,299,69,80,127,98,221,96,90,130,16,182,289,32,114,257,272,207,237,84,244,174,240,190,50,92,271,65,189,86,116,220,125,75,200,121,56,151,77,226,288,212,18,40,168,238,166,28,279,11,236,34,93,280,216,213,21,87,293,298,206,41,152,122,217,101,22,26,267,255,110,275,199,147,248,265,149,247,202,126,296,230,154,43,61,254,49,129,67,138,188,169,163,30,58,3,218,243,183,0,160,184,106,223,9,119,235,25,35,153,250,239,266,148,71,181,57,54,276,79,179,31,123,24,251,48,249,60,94,112,214,109,100,227,10,15,165,222,91,270,133,294,135,246,85,263,291,205,146,99,33,95,164,59,282,167,177,286,102,208,284,105,268,143,176,295,111,172,215,170,175,259,195,89,290,187,37,76,139,210,74,17,150,171,231,120]","35","arrowleft","","13"
"","574","canvas-keyboard-response","25","91470","0.0-14.2-0.2-0.2"," ","[212,291,82,71,16,250,14,184,221,175,85,126,90,128,108,240,241,137,286,124,225,284,237,24,29,260,207,155,69,243,181,83,208,27,141,15,89,116,173,223,28,267,60,55,296,65,224,56,203,39,118,105,10,157,41,253,165,280,51,217,245,38,113,31,47,275,18,288,158,159,256,23,72,7,6,88,36,97,161,248,98,30,164,77,179,53,215,8,254,45,261,242,96,278,236,200,170,32,110,197,52,46,287,104,73,3,297,74,132,13,169,249,230,17,177,58,148,251,11,50,188,195,218,262,21,112,101,35,146,231,152,219,258,91,100,180,259,199,67,149,150,172,244,234,12,202,257,156,276,9,145,290,75,167,20,205,48,194,277,87,144,193,42,84,171,76,143,186,78,235,279,210,191,263,123,103,281,162,238,130,57,99,131,151,209,0,196,135,120,273,229,163,25,274,182,246,226,283,222,95,62,189,270,134,93,59,153,117,63,174,37,114,185,1,198,192,228,106,232,40,70,121,298,133,140,5,271,211,201,66,160,183,216,204,285,43,102,190,136,34,79,268,213,139,154,295,81,111,68,94,4,214,92,293,233,294,282,264,142,147,168,206,176,54,247,44,187,255,129,107,127,80,109,22,239,122,252,272,269,266,33,227,61,265,49,166,292,138,289,115,220,119,2,26,125,64,86,19,299,178]","35","arrowleft","","13"
"","65","canvas-keyboard-response","26","94402","0.0-14.3-0.3-0.3","arrowright","[44,60,211,6,206,224,240,256,223,257,43,38,270,210,199,236,290,36,24,69,151,191,213,247,7,117,241,285,217,263,244,299,31,162,295,83,67,91,57,26,239,142,193,110,233,21,277,10,78,137,62,88,100,109,265,232,123,85,195,61,66,23,104,92,105,128,202,242,99,175,288,222,293,188,172,284,252,18,160,237,33,76,30,46,145,81,16,75,47,82,209,185,287,71,225,189,234,201,111,166,248,114,101,229,171,157,144,48,221,282,135,147,216,274,132,143,279,107,215,212,149,200,297,64,27,131,90,179,121,178,258,20,164,84,292,70,262,203,136,4,161,13,227,169,186,182,298,127,280,72,204,0,124,153,139,208,276,42,220,35,80,93,29,272,37,271,51,102,53,52,116,187,294,283,56,14,45,68,235,97,28,2,133,34,194,73,130,113,184,228,278,152,205,122,176,266,245,39,226,190,275,269,249,8,246,22,230,1,89,55,281,251,74,54,196,165,214,141,177,250,25,167,231,254,289,140,40,159,180,138,218,264,118,183,192,95,5,268,32,19,170,181,198,267,77,238,156,12,106,9,59,15,154,108,41,286,120,173,50,58,273,163,79,253,17,126,129,115,158,219,86,168,11,261,291,119,103,96,174,148,155,255,3,146,49,207,150,134,98,259,112,87,197,243,94,260,296,65,63,125]","35","arrowleft","false","13"
"","2159","canvas-keyboard-response","27","99546","0.0-15.0-0.0-0.0","arrowleft","[175,290,178,195,75,221,174,54,60,76,220,272,209,37,153,57,110,36,230,263,270,150,120,3,139,158,257,99,266,34,268,244,130,187,170,162,30,236,293,285,9,228,151,123,94,51,0,44,147,29,180,67,163,233,50,295,299,205,232,279,135,115,254,62,134,113,269,14,192,126,118,189,157,83,252,155,25,264,28,117,89,42,17,181,253,114,122,226,298,97,223,294,182,33,166,284,129,71,88,249,154,11,235,288,121,259,22,2,215,91,146,219,77,229,81,240,202,90,133,109,132,48,199,63,239,281,45,292,20,112,251,104,296,1,125,280,234,159,168,200,172,103,80,149,176,297,72,4,46,137,16,247,145,161,78,248,196,85,56,66,289,282,13,164,275,237,74,21,32,92,250,198,31,274,7,47,277,267,148,183,173,18,108,171,141,283,165,8,82,206,216,186,142,271,27,111,273,87,291,131,39,23,217,197,12,58,278,184,224,38,5,179,193,26,84,241,203,40,49,211,262,69,222,15,127,191,210,64,100,136,188,138,68,160,204,86,218,10,242,116,286,214,53,101,143,260,96,41,52,95,106,6,79,61,43,144,276,287,238,246,212,194,105,59,167,55,65,255,107,70,185,265,201,124,243,73,245,24,102,190,169,231,207,19,152,98,128,140,35,227,177,261,258,208,119,256,213,156,225,93]","30","arrowleft","true","14"
"","2124","canvas-keyboard-response","28","103576","0.0-16.0-0.0-0.0","arrowright","[236,36,223,177,178,170,43,111,155,122,83,9,271,96,37,70,166,154,123,260,205,102,56,67,255,284,3,209,275,127,124,148,89,5,159,289,248,242,237,6,65,108,213,167,52,143,53,232,23,121,116,29,185,202,73,249,125,57,98,12,220,32,294,61,1,113,233,152,197,58,228,128,274,174,133,281,265,72,8,176,267,26,181,221,235,16,59,31,38,187,262,18,258,25,22,245,13,81,256,189,35,91,252,64,214,164,225,119,193,120,282,278,51,231,163,251,219,60,90,165,44,149,291,142,206,250,17,283,126,131,186,172,117,292,134,97,93,80,28,129,153,42,263,217,215,211,286,19,135,110,168,78,182,254,268,196,95,299,49,138,179,261,137,204,180,194,151,74,277,39,33,190,243,226,132,0,79,66,68,244,195,141,264,107,87,296,62,156,84,269,191,88,234,216,184,257,240,146,112,71,224,293,288,227,14,203,287,144,297,247,229,30,145,239,10,175,82,100,208,241,85,222,109,150,173,183,285,105,198,171,230,27,114,157,279,40,272,2,259,4,21,246,103,34,139,188,162,158,276,63,169,76,46,273,41,212,238,295,75,104,101,253,210,7,47,298,115,136,266,92,15,45,192,140,48,199,20,24,160,201,290,99,270,207,161,106,218,86,130,280,200,77,69,50,94,11,147,54,118,55]","25","arrowright","true","15"
"","51","canvas-keyboard-response","29","105506","0.0-17.0-0.0-0.0"," ","[270,159,298,229,220,285,178,245,278,4,49,22,67,120,157,297,187,141,258,207,266,173,63,77,189,36,203,113,205,215,151,213,230,56,235,116,20,39,130,259,17,263,239,111,204,252,58,8,35,214,241,210,88,191,122,144,6,218,81,217,172,289,197,209,275,123,281,224,248,142,47,155,149,80,71,254,231,256,223,91,147,208,9,161,212,261,135,101,79,271,262,183,32,222,121,83,33,27,177,110,96,194,206,114,85,76,55,52,41,188,257,169,128,238,174,37,185,145,219,34,124,66,246,225,277,265,136,118,163,150,138,125,181,240,115,78,244,200,247,117,294,62,216,282,84,299,166,59,148,198,226,175,7,105,291,95,94,272,51,44,193,132,60,295,19,211,98,221,186,250,69,87,228,61,90,274,269,5,190,279,54,227,180,267,65,284,243,268,97,176,167,64,38,1,156,13,168,260,126,73,107,232,43,104,160,251,293,75,23,86,287,139,201,276,10,171,103,30,3,99,12,109,162,140,18,292,119,164,2,24,249,45,70,25,233,255,286,152,74,234,92,253,106,57,131,48,72,202,280,0,15,158,192,31,11,179,199,184,137,21,108,236,26,68,242,29,28,196,170,102,53,112,296,42,182,153,154,16,50,46,146,143,237,134,127,264,129,93,40,14,133,89,195,283,288,290,273,82,165,100]","20","arrowright","","16"
"","1474","canvas-keyboard-response","30","109744","0.0-17.1-0.1-0.1"," ","[27,131,102,85,234,41,60,273,107,59,266,223,220,275,134,21,155,76,237,271,267,89,181,90,140,77,241,268,192,39,103,261,10,153,187,215,240,175,2,80,121,280,111,274,101,255,65,139,157,158,84,249,94,281,96,29,200,28,115,16,297,287,3,291,289,63,286,295,31,293,97,245,211,173,66,81,253,160,70,106,116,7,296,225,154,93,254,174,100,109,87,40,50,142,239,15,5,104,272,144,231,212,172,124,202,14,193,72,146,256,219,208,264,246,235,156,243,228,292,236,136,133,282,169,61,17,259,35,13,98,148,119,207,118,128,152,132,92,130,165,91,145,248,216,299,221,30,112,284,176,44,210,277,247,194,159,229,224,37,196,75,137,58,170,126,188,83,151,222,20,120,244,183,117,164,38,78,113,143,67,204,26,226,49,71,205,74,64,105,186,276,190,18,135,232,189,79,95,257,53,285,149,19,195,283,127,24,11,12,23,46,177,123,22,263,279,114,197,141,191,32,55,230,251,42,138,129,260,73,168,227,179,203,45,185,209,298,56,6,122,9,270,269,43,294,34,161,108,198,250,213,233,99,258,36,69,242,33,54,150,201,48,252,171,47,167,25,214,184,278,262,52,162,166,82,8,1,68,88,238,51,182,288,4,163,217,147,199,265,290,178,218,86,180,0,57,206,62,110,125]","20","arrowright","","16"
"","761","canvas-keyboard-response","31","112817","0.0-17.2-0.2-0.2"," ","[151,22,73,140,130,248,185,289,47,118,176,18,187,94,68,109,99,165,150,10,262,293,115,51,56,114,255,273,199,207,120,6,62,61,275,108,268,5,92,164,152,276,91,202,286,85,38,216,258,173,211,4,126,76,200,243,60,26,299,192,180,12,269,219,237,96,70,160,64,298,42,156,228,97,75,201,16,189,0,112,147,190,57,238,144,227,271,131,245,260,113,135,158,296,253,218,259,223,233,65,155,137,257,103,116,264,213,86,93,9,71,236,124,30,3,282,25,224,87,100,80,15,19,43,168,244,77,101,59,161,278,261,250,127,251,13,193,241,50,40,230,110,14,206,107,288,226,46,32,205,54,141,37,95,171,98,240,20,239,263,143,279,212,153,88,44,220,142,281,162,145,117,196,90,198,7,45,41,81,265,215,67,225,11,106,111,49,138,48,166,194,79,235,139,104,78,181,274,178,89,284,27,35,222,195,1,208,23,134,256,292,247,34,146,290,66,69,231,125,29,179,209,17,183,102,182,136,184,191,24,133,232,121,280,217,52,295,174,203,169,291,123,82,186,74,8,83,84,277,252,128,159,266,242,55,234,33,188,249,283,122,287,31,214,270,36,157,119,204,197,254,148,229,297,163,149,105,129,177,246,170,154,285,63,294,132,172,53,2,210,221,267,272,72,58,167,21,39,175,28]","20","arrowright","","16"
"","701","canvas-keyboard-response","32","115939","0.0-17.3-0.3-0.3"," ","[154,102,69,205,122,164,127,196,48,100,270,177,74,135,64,182,105,84,117,0,62,248,103,143,61,195,36,148,175,132,218,5,236,83,268,45,289,136,58,272,252,275,211,153,199,147,106,3,216,25,276,22,96,94,82,180,107,139,265,202,123,85,1,259,281,160,192,4,274,214,66,225,194,299,50,267,140,159,203,38,241,200,156,295,150,98,145,228,297,191,81,260,286,219,245,287,78,294,291,166,121,240,19,201,206,210,31,115,137,2,187,215,247,11,95,254,92,155,298,119,18,26,158,90,255,280,47,239,79,242,277,89,33,124,73,193,179,41,87,285,282,246,57,113,37,35,162,101,263,8,72,173,55,52,213,269,188,129,262,165,223,13,20,233,68,24,28,217,226,296,104,178,293,32,181,42,86,284,118,230,7,133,220,44,208,266,16,250,209,288,51,149,75,172,170,264,273,71,184,21,279,144,128,142,186,109,278,99,229,23,232,91,190,70,46,76,97,244,27,234,131,151,9,207,174,167,168,29,271,171,111,10,249,125,253,256,283,224,116,227,59,67,40,65,17,251,6,93,12,221,292,258,114,237,141,30,110,238,134,80,60,163,161,77,112,204,130,185,15,198,152,169,197,39,176,54,126,290,88,14,34,222,243,257,53,235,63,231,56,120,43,138,146,212,183,49,108,157,261,189]","20","arrowright","","16"
"","640","canvas-keyboard-response","33","119123","0.0-17.4-0.4-0.4","arrowleft","[89,299,24,73,50,54,2,230,260,189,90,37,47,187,242,290,272,209,69,207,186,124,98,291,162,255,19,62,81,211,280,220,232,53,239,56,156,264,52,42,64,1,35,295,273,143,292,129,185,112,171,191,38,215,100,174,169,51,91,159,82,240,145,32,140,139,177,74,235,198,243,204,237,238,57,15,131,250,103,5,70,48,102,122,231,170,293,271,233,180,163,279,213,3,284,219,203,152,142,114,183,258,262,199,94,294,297,120,117,157,93,227,20,151,269,61,137,80,76,165,40,205,225,55,161,11,83,147,95,167,158,146,84,256,18,241,28,153,86,188,263,115,106,133,268,27,21,245,160,194,166,296,65,275,236,126,45,109,184,63,25,257,261,59,92,288,0,136,107,218,249,41,79,289,128,278,113,283,87,10,224,77,192,67,17,119,66,164,168,287,141,125,144,8,208,123,46,132,195,281,222,60,286,176,206,13,23,179,254,16,111,214,22,58,34,49,226,181,105,267,72,298,43,228,276,282,9,135,175,210,251,78,121,229,101,29,221,217,68,246,149,201,14,266,4,104,33,274,99,88,178,197,36,193,155,110,244,148,277,108,223,75,127,130,270,202,212,200,285,44,216,150,118,253,6,96,259,7,30,97,39,71,116,265,26,12,190,234,172,248,182,154,85,247,196,134,252,138,173,31]","20","arrowright","false","16"
"","1703","canvas-keyboard-response","34","124002","0.0-18.0-0.0-0.0"," ","[23,269,261,22,138,246,238,176,96,148,232,136,282,234,179,218,260,203,137,14,173,123,76,236,146,216,24,31,247,149,94,225,3,68,239,144,64,109,171,43,241,280,204,38,114,180,78,113,86,222,62,168,223,65,237,157,103,9,183,30,93,132,53,297,90,187,27,127,253,276,69,244,266,264,12,162,202,184,50,52,140,255,209,60,251,77,245,37,105,18,287,83,51,147,167,294,211,175,102,295,227,119,206,81,281,141,13,299,44,152,122,284,87,271,290,285,8,298,36,16,49,45,17,40,4,250,231,200,262,47,198,257,186,10,194,291,108,151,172,100,270,88,189,98,166,79,135,272,182,54,72,226,0,296,174,25,221,191,120,74,275,66,207,118,274,163,89,259,104,154,7,230,249,158,99,160,289,267,210,70,73,265,56,165,286,178,139,233,80,111,112,26,196,197,215,190,177,193,156,91,263,67,71,129,41,279,248,254,220,130,32,20,170,11,84,75,242,106,224,92,292,155,55,235,126,48,101,208,117,42,219,39,159,124,161,46,125,107,21,63,143,142,33,288,212,213,85,58,5,243,199,116,115,2,97,1,110,95,278,283,195,252,150,169,181,273,268,19,82,29,228,131,128,164,258,188,57,28,35,277,121,15,133,240,61,153,256,205,6,217,229,59,192,145,293,201,134,214,34,185]","15","arrowright","","17"
"","899","canvas-keyboard-response","35","127296","0.0-18.1-0.1-0.1","arrowright","[20,174,244,293,210,97,111,8,127,294,5,282,190,204,223,233,103,117,298,158,162,189,157,31,211,140,66,267,121,236,217,129,90,76,99,37,104,207,107,13,288,25,74,264,250,83,114,181,142,284,80,1,30,185,295,87,33,18,177,159,285,79,3,208,289,251,63,84,283,23,57,292,14,136,249,242,232,201,240,49,19,95,220,77,86,131,32,51,41,126,65,89,110,124,82,94,252,166,120,92,179,29,122,155,291,128,218,55,105,26,36,2,130,15,266,268,72,214,73,176,4,67,175,12,108,299,144,203,198,118,275,96,56,238,276,231,219,167,247,42,137,239,100,297,206,273,119,64,0,164,193,24,98,146,38,113,260,256,259,182,188,52,186,172,35,54,226,296,9,272,17,222,169,109,263,216,58,165,40,224,139,237,258,160,50,149,34,48,68,6,116,154,22,183,178,43,254,71,85,145,138,279,196,88,47,93,134,187,115,192,46,277,246,205,59,225,133,70,112,278,227,81,234,200,255,230,44,180,102,141,28,53,212,153,195,171,253,269,143,150,241,78,60,265,281,135,274,62,21,10,156,161,69,45,101,191,209,213,125,235,61,270,221,261,11,184,286,280,215,173,194,91,7,243,248,228,262,229,245,147,123,170,27,152,163,148,287,132,197,151,168,39,290,199,75,106,271,202,257,16]","15","arrowright","true","17"
"","2074","canvas-keyboard-response","36","131750","0.0-19.0-0.0-0.0"," ","[282,171,97,55,258,204,260,197,163,32,174,72,299,191,146,298,210,283,187,236,229,135,279,173,231,209,66,128,215,159,256,230,265,6,221,114,98,77,219,268,291,78,149,103,166,181,253,79,86,246,3,80,288,105,145,44,186,172,47,169,39,190,117,35,178,17,5,0,200,266,247,111,122,14,45,295,276,12,180,27,201,84,58,151,51,207,142,274,26,226,232,214,261,11,90,249,132,16,108,195,22,156,70,208,148,287,63,25,297,29,138,262,280,194,81,199,216,227,137,245,217,277,109,154,125,144,50,235,273,61,225,110,244,259,136,99,179,153,38,205,28,13,91,118,48,52,53,233,270,272,40,170,212,213,278,104,69,206,162,177,59,134,7,189,121,85,228,106,147,76,31,139,83,71,271,269,36,57,198,94,23,140,101,286,293,255,211,129,150,164,119,160,9,141,95,152,37,96,18,289,284,267,222,15,93,182,10,102,296,285,115,74,165,275,263,92,20,67,131,203,224,130,143,2,88,250,120,158,82,161,238,175,107,196,240,241,251,220,43,19,116,176,254,127,89,167,21,243,237,202,24,65,60,239,49,113,87,56,112,8,73,242,126,223,185,183,4,64,30,100,252,41,292,1,123,133,157,68,155,218,192,168,257,124,33,34,42,46,75,234,188,294,248,62,290,281,193,54,184,264]","10","arrowleft","","18"
"","2922","canvas-keyboard-response","37","136545","0.0-19.1-0.1-0.1"," ","[206,97,252,262,230,218,22,261,278,54,88,90,238,126,82,163,243,186,99,289,6,93,158,166,237,116,226,265,276,53,113,210,170,73,287,4,274,119,7,127,145,275,67,122,160,69,208,111,16,100,17,288,37,0,167,231,46,39,181,204,83,161,75,168,233,134,78,285,177,94,32,266,154,66,151,256,15,23,164,211,162,10,264,183,115,18,109,102,188,280,235,84,223,169,251,156,185,180,270,232,121,72,198,41,155,136,234,74,267,91,179,40,43,76,77,48,81,49,28,143,293,55,63,195,153,268,217,273,299,147,38,257,80,286,298,62,292,12,173,107,225,135,144,124,31,191,244,137,215,132,239,282,219,142,272,34,139,51,92,279,213,52,117,176,291,255,140,190,295,249,221,95,240,245,57,227,149,224,8,21,159,45,141,5,129,68,108,296,36,199,271,60,24,152,138,165,193,128,104,229,130,64,120,25,96,56,71,14,114,182,105,263,281,184,33,277,123,250,212,178,175,258,171,9,209,157,197,133,106,222,192,216,242,294,236,214,58,220,50,174,172,187,2,194,86,85,103,150,110,44,42,59,202,26,47,248,13,259,125,228,29,30,148,297,260,35,65,11,246,112,196,146,253,118,201,207,89,27,70,101,189,247,203,200,290,254,269,19,20,98,1,283,241,284,61,131,87,79,3,205]","10","arrowleft","","18"
"","668","canvas-keyboard-response","38","139045","0.0-19.2-0.2-0.2"," ","[195,265,234,208,150,272,293,56,277,165,238,54,31,139,207,120,104,185,90,136,245,81,78,296,220,38,194,261,251,73,201,219,143,228,171,71,141,197,95,193,109,126,175,33,209,135,159,223,285,149,161,115,39,173,55,118,191,74,242,244,267,20,16,236,70,287,128,288,113,27,230,7,130,18,233,284,40,24,44,170,107,83,61,68,178,137,273,14,102,36,45,10,298,297,37,93,256,177,163,131,67,157,99,11,52,1,87,41,271,72,76,122,134,152,51,116,15,214,168,218,200,156,203,286,247,290,121,196,188,111,199,89,132,58,77,43,101,105,183,189,167,164,227,25,125,114,29,158,299,9,241,291,30,86,49,235,119,187,84,176,138,169,162,172,47,85,190,260,174,110,65,133,6,255,12,42,259,225,262,35,151,289,103,142,91,268,269,19,59,62,75,106,211,257,232,123,253,275,23,181,213,270,180,250,226,22,179,66,48,264,34,248,222,216,280,108,266,186,258,117,295,231,153,57,144,97,252,217,60,278,63,2,124,229,80,112,17,166,239,254,96,274,148,21,69,221,212,64,210,79,98,53,129,198,283,204,154,88,249,279,94,100,237,145,202,127,3,292,0,92,82,246,224,26,240,205,8,263,4,276,13,140,243,206,147,184,28,50,281,182,5,46,160,155,282,192,32,146,294,215]","10","arrowleft","","18"
"","655","canvas-keyboard-response","39","141583","0.0-19.3-0.3-0.3","arrowleft","[13,63,274,100,41,295,226,52,243,202,288,239,232,20,297,65,139,156,277,275,29,36,107,69,285,10,258,255,16,33,210,254,61,256,269,195,48,15,204,220,216,148,50,155,77,203,192,132,45,263,187,154,95,133,286,119,38,170,9,233,135,28,182,14,144,109,120,174,230,55,234,140,271,261,172,193,4,92,217,152,22,111,200,81,180,267,84,245,137,113,127,171,130,281,176,104,246,75,89,141,184,103,265,82,280,25,142,191,8,189,21,221,257,211,58,278,248,7,145,40,293,279,102,194,223,229,164,161,121,167,153,236,26,199,207,160,188,46,287,66,252,264,124,118,44,57,290,168,131,106,34,134,227,169,266,190,122,237,231,35,173,208,78,158,115,179,186,5,251,123,32,12,238,296,126,185,49,218,128,3,53,88,112,93,86,146,272,97,149,76,24,273,59,114,68,201,129,51,260,90,98,67,212,71,64,215,147,43,143,183,213,6,136,205,18,250,249,298,159,17,54,289,284,108,228,31,270,219,268,253,96,70,196,37,283,110,242,299,157,62,292,11,206,151,74,1,60,79,177,197,224,94,181,99,105,23,117,276,162,30,262,294,91,83,214,247,163,222,2,101,198,87,39,241,19,138,56,178,225,116,80,235,85,47,73,72,150,259,166,27,209,175,42,282,291,244,165,125,0,240]","10","arrowleft","true","18"
"","1668","canvas-keyboard-response","40","145540","0.0-20.0-0.0-0.0"," ","[112,271,176,127,281,22,4,141,181,96,137,98,186,212,190,262,134,216,84,226,136,126,101,163,202,108,198,209,178,18,119,78,156,8,24,188,32,214,74,290,173,211,42,250,12,64,174,135,109,40,272,147,237,140,52,92,284,129,167,20,60,157,1,203,217,25,91,296,76,124,139,279,280,67,258,170,11,159,256,161,219,286,283,292,120,145,158,73,270,66,162,21,86,30,223,218,274,94,41,255,183,179,104,47,138,253,201,282,238,46,231,75,229,128,36,298,35,207,103,56,148,275,50,196,273,240,125,232,261,235,37,168,121,152,291,143,83,155,6,171,264,118,239,175,228,153,268,208,252,184,53,82,16,77,15,58,31,81,72,116,55,225,210,189,194,70,288,63,7,57,164,193,130,230,180,87,197,263,192,247,295,191,245,69,85,244,257,110,220,10,172,299,266,115,13,33,44,259,49,254,45,9,68,204,182,43,133,71,243,26,200,19,160,89,122,107,169,187,224,38,65,260,267,23,227,0,88,269,79,213,146,48,29,177,59,285,287,142,123,246,95,293,106,294,28,289,251,165,233,100,195,222,27,236,199,51,131,132,297,249,114,113,99,54,111,150,80,5,265,185,242,90,205,206,14,221,215,149,278,276,277,105,151,144,2,241,93,154,97,102,3,234,34,166,248,61,117,39,62,17]","5","arrowleft","","19"
"","652","canvas-keyboard-response","41","148435","0.0-20.1-0.1-0.1"," ","[267,25,63,49,110,174,237,74,7,284,173,100,18,241,152,297,208,69,86,27,287,119,122,75,115,275,233,235,103,16,156,177,197,286,78,129,202,41,127,298,204,180,187,240,170,116,73,135,95,92,214,281,209,190,146,54,296,66,144,216,221,141,32,124,82,20,102,37,260,188,76,89,99,243,145,137,93,228,2,215,150,223,250,35,136,200,42,162,246,219,59,3,68,211,295,15,148,94,207,285,111,98,13,171,22,238,139,248,40,153,51,159,60,38,67,294,265,47,6,274,262,10,182,191,244,165,43,120,112,65,30,184,226,232,80,79,249,140,229,107,181,132,0,138,263,105,19,282,1,61,117,192,142,126,14,234,114,11,34,258,130,106,179,196,133,4,118,81,259,264,212,210,257,213,125,50,55,205,29,97,291,56,8,149,17,167,163,53,26,164,28,201,217,193,128,101,290,96,154,88,254,131,220,203,261,224,186,158,64,280,36,70,108,113,143,289,272,185,273,157,292,5,151,21,109,52,253,87,222,195,72,161,276,256,266,24,155,288,175,91,283,194,169,44,293,230,39,84,77,255,166,270,172,198,252,83,31,183,176,121,45,23,104,247,225,278,62,206,48,271,236,269,199,242,160,189,277,134,245,58,90,251,168,231,279,33,239,268,12,9,218,71,123,299,57,178,227,147,85,46]","5","arrowleft","","19"
"","71","canvas-keyboard-response","42","151091","0.0-20.2-0.2-0.2"," ","[229,285,39,253,81,73,124,273,167,80,252,290,127,279,214,142,119,31,286,147,106,123,178,129,36,196,276,199,283,133,37,162,157,8,5,143,228,90,9,287,24,254,239,270,183,282,154,65,103,188,35,19,94,189,250,97,111,89,43,77,72,91,261,221,185,172,95,240,200,238,220,182,27,280,30,271,14,102,266,53,160,246,101,156,44,79,235,132,117,61,52,34,299,145,45,161,55,219,108,288,42,205,78,20,173,83,151,164,152,289,23,260,11,180,237,4,225,153,243,256,233,110,114,121,38,146,210,195,64,158,25,169,60,105,296,54,141,184,33,71,204,277,230,207,215,263,198,28,136,208,48,100,26,107,69,87,181,192,10,159,82,174,236,241,93,46,223,247,74,222,226,227,150,191,29,41,272,118,255,278,262,112,267,115,128,68,86,163,122,50,186,166,232,109,175,135,40,197,234,224,138,217,269,291,116,140,66,212,190,125,98,298,264,1,76,75,265,62,113,295,297,165,206,177,201,179,13,131,144,242,244,7,211,170,258,22,0,104,12,32,63,259,96,16,149,284,251,176,245,171,51,139,84,249,49,70,58,137,203,168,216,209,2,57,213,293,47,134,56,67,257,194,130,275,292,274,88,126,202,85,21,294,59,148,99,15,248,18,92,120,155,3,231,187,268,218,281,193,17,6]","5","arrowleft","","19"
"","0","canvas-keyboard-response","43","154057","0.0-20.3-0.3-0.3"," ","[137,74,48,288,246,222,77,242,136,33,252,199,139,150,44,161,227,255,28,256,297,248,138,271,24,42,80,207,2,293,87,203,196,189,124,268,131,66,184,32,204,126,133,21,157,151,60,296,169,272,160,270,243,179,134,176,7,299,177,148,20,285,147,229,187,165,221,62,61,103,166,235,29,56,213,188,183,178,22,53,266,201,175,88,241,45,186,158,128,261,211,39,163,101,104,171,173,228,34,51,73,226,170,0,152,91,195,210,181,90,269,26,278,247,70,6,194,99,280,167,216,55,267,79,262,287,249,93,238,36,253,9,162,117,174,82,223,71,118,245,275,233,284,292,217,98,197,78,259,19,279,67,219,114,95,234,83,31,135,50,257,43,240,52,123,298,17,277,224,14,251,111,282,127,16,63,5,132,109,46,215,230,273,40,258,214,254,97,41,25,102,120,294,113,65,13,105,142,239,232,265,190,182,112,129,200,274,263,47,72,130,85,125,237,185,57,86,281,264,49,92,30,168,3,145,11,23,1,140,231,27,115,68,143,295,156,172,209,193,212,121,206,110,64,84,100,35,15,96,76,225,141,153,149,155,38,192,54,290,107,144,81,122,205,10,154,220,69,4,218,260,119,159,12,164,89,116,291,250,94,18,75,198,37,180,108,59,8,236,106,289,208,146,202,276,283,58,286,191,244]","5","arrowleft","","19"
"","69","canvas-keyboard-response","44","157216","0.0-20.4-0.4-0.4"," ","[287,166,296,113,258,109,108,282,278,155,144,15,290,210,260,100,35,12,229,171,114,25,54,86,145,154,20,289,131,11,78,259,283,212,262,120,27,270,221,88,0,191,204,83,91,49,294,267,103,48,227,82,57,118,105,172,29,55,246,162,205,56,233,238,174,150,276,81,239,102,224,167,211,177,213,7,248,64,203,244,235,66,175,117,197,41,281,193,159,222,163,79,89,50,194,285,46,279,85,138,92,195,234,97,261,271,286,96,32,151,274,137,3,237,230,192,17,198,228,190,52,231,2,65,242,133,158,265,126,214,112,179,51,61,199,182,225,132,72,240,241,147,254,67,77,252,21,6,299,134,10,40,136,125,115,263,284,23,94,232,149,215,269,264,44,53,268,47,217,106,129,250,26,168,80,236,90,16,169,297,36,63,33,130,256,127,245,176,13,153,107,186,152,71,207,58,87,291,255,1,84,201,165,206,60,189,170,39,196,76,128,34,74,253,249,156,123,8,142,140,219,59,143,31,30,9,220,157,141,161,247,116,110,135,178,4,14,69,37,124,160,173,251,42,243,99,75,257,68,187,24,5,218,164,111,93,146,45,22,122,280,181,188,223,148,28,295,18,43,121,216,19,98,202,185,62,226,208,104,200,73,273,183,209,180,95,292,38,277,101,139,293,298,266,184,119,70,272,275,288]","5","arrowleft","","19"
"","1313","canvas-keyboard-response","45","161585","0.0-20.5-0.5-0.5"," ","[274,152,178,296,91,171,181,44,241,260,244,40,285,69,276,18,49,109,175,136,67,215,151,188,70,57,14,278,39,292,45,43,33,287,269,90,59,283,0,29,135,106,203,236,124,238,27,23,105,273,10,265,286,177,284,196,22,182,266,195,38,167,229,279,97,46,184,154,86,297,107,289,159,32,271,119,272,212,141,80,247,94,291,145,205,158,79,201,74,138,117,20,108,216,71,237,200,54,220,113,211,7,13,174,104,186,240,258,288,210,202,24,262,36,221,9,198,298,189,213,270,81,87,68,165,179,111,75,132,41,148,2,129,73,249,48,173,197,92,242,290,143,96,100,120,4,30,280,17,52,275,245,230,84,227,134,5,183,55,101,123,293,34,191,161,6,25,169,19,83,66,149,76,199,259,248,122,21,214,162,267,37,231,255,114,294,228,95,252,42,256,192,224,194,62,11,239,226,8,156,251,103,253,102,170,110,164,268,243,185,140,28,118,190,180,130,88,112,82,60,250,254,63,133,222,61,144,217,168,116,257,98,166,277,281,261,50,208,127,12,299,235,15,233,160,16,206,47,85,31,78,126,142,150,146,128,176,232,187,58,3,51,35,209,99,218,125,225,155,204,219,163,223,157,147,131,26,72,153,139,65,234,115,264,93,1,263,53,295,246,137,207,64,89,193,77,282,172,121,56]","5","arrowleft","","19"
"","785","canvas-keyboard-response","46","164797","0.0-20.6-0.6-0.6","arrowright","[94,176,10,139,67,3,187,73,168,5,71,137,223,177,224,13,210,43,241,291,19,268,180,136,50,214,266,245,2,106,145,157,146,272,179,199,68,202,297,142,102,51,178,278,212,237,78,121,159,243,276,39,271,104,27,184,213,116,215,188,105,28,58,274,255,248,285,134,66,211,259,22,246,115,101,205,221,131,161,125,270,89,129,99,231,55,119,220,169,296,46,172,299,242,154,167,166,254,151,267,250,9,152,236,230,30,155,61,77,60,156,174,122,81,111,252,194,143,17,44,36,244,207,92,275,170,234,132,31,163,165,288,32,298,18,258,109,186,108,217,65,103,260,126,138,153,191,283,141,147,49,198,62,227,294,97,222,41,216,98,279,238,120,201,229,20,57,263,200,262,84,100,88,69,42,107,164,29,35,40,182,11,23,63,209,208,293,162,249,190,33,195,74,265,79,72,284,38,85,54,113,34,247,64,193,203,204,273,91,26,196,12,292,8,150,289,7,53,117,15,225,264,226,93,232,239,233,86,80,130,183,16,140,45,56,251,4,181,148,257,123,160,144,253,112,158,118,281,277,192,128,149,83,59,14,290,133,206,47,218,269,96,37,76,175,110,135,24,21,1,256,6,185,286,240,25,197,114,261,287,228,0,87,124,127,70,48,90,219,95,280,173,82,52,171,75,235,295,282,189]","5","arrowleft","false","19"
