"view_history","rt","trial_type","trial_index","time_elapsed","internal_node_id","response","nodesOrdering","cliqueSize","correctResponse","correctnessOfResponse","presentationNumber"
"[{""page_index"":0,""viewing_time"":6324}]","6324","instructions","0","6326","0.0-0.0","","","","","",""
"","3424","canvas-keyboard-response","1","11616","0.0-1.0-0.0-0.0","arrowleft","[142,154,29,89,54,219,174,241,45,125,191,52,132,56,171,30,286,64,137,28,292,24,0,65,59,163,153,70,194,175,93,32,9,90,207,94,232,40,122,50,148,256,223,299,183,67,172,23,101,186,80,1,226,26,192,79,280,4,228,48,288,202,185,11,87,146,187,190,234,250,290,13,20,296,275,294,287,92,126,42,193,173,130,170,76,217,21,136,236,229,6,213,149,99,272,103,196,205,261,116,297,114,43,88,273,189,77,252,184,3,68,240,271,123,18,165,253,161,95,166,69,72,238,251,243,138,209,61,82,66,218,2,231,49,269,58,131,75,262,119,211,212,156,277,197,36,97,10,178,109,281,210,267,34,198,19,85,263,227,260,140,124,266,71,180,128,257,204,199,282,298,144,230,214,268,7,225,84,249,112,129,110,151,284,25,14,41,73,160,221,78,63,245,255,233,100,278,120,295,291,86,108,200,60,37,246,57,248,222,237,201,127,195,181,81,118,83,107,150,182,270,145,121,139,159,62,51,265,147,155,276,258,179,33,152,27,38,274,115,169,111,133,44,22,91,117,98,102,239,244,177,224,158,162,47,143,293,104,206,279,188,141,176,285,31,12,39,208,157,16,259,8,106,203,247,105,17,96,242,53,264,5,216,135,235,164,168,35,15,74,46,167,220,113,289,55,254,134,215,283]","100","arrowleft","true","0"
"","1238","canvas-keyboard-response","2","14739","0.0-2.0-0.0-0.0","arrowleft","[117,1,237,232,142,82,100,127,193,212,58,42,292,41,55,257,256,29,98,130,184,276,157,222,236,259,10,65,196,214,254,290,190,233,279,27,225,19,14,226,284,253,153,26,220,132,116,223,151,94,143,56,88,250,173,123,204,13,129,243,2,102,271,215,169,112,4,175,281,122,99,92,23,30,49,205,161,61,33,297,135,262,251,93,195,248,238,68,120,266,70,299,31,162,145,79,81,87,291,221,286,180,114,274,146,208,272,165,101,287,198,240,62,182,188,37,50,73,255,171,179,154,125,48,227,147,293,273,211,78,5,263,186,192,47,199,219,185,283,105,118,109,183,119,64,158,38,234,258,252,97,51,66,249,201,166,231,177,213,159,95,285,178,163,167,191,176,24,174,25,200,268,168,270,89,6,298,18,43,76,57,108,264,131,235,261,67,104,277,139,34,84,217,296,85,189,224,110,155,156,124,83,59,265,115,3,90,72,111,242,278,16,46,107,187,137,218,80,54,40,216,86,247,133,239,45,269,11,113,39,149,121,194,164,267,52,32,69,140,35,53,294,289,245,241,128,126,12,229,207,141,170,260,209,172,275,203,206,0,244,91,44,74,228,138,150,134,136,210,202,280,282,36,28,77,20,144,21,148,152,8,295,15,288,96,181,230,103,17,246,160,63,75,9,60,106,7,71,22,197]","95","arrowleft","true","1"
"","1430","canvas-keyboard-response","3","18043","0.0-3.0-0.0-0.0","arrowright","[233,222,87,196,254,38,8,5,122,66,176,61,120,207,17,181,255,117,244,228,39,33,82,102,42,264,81,211,0,72,252,50,130,191,13,242,185,53,37,28,212,101,194,165,96,224,299,118,74,178,136,243,189,296,69,144,32,90,75,202,142,46,128,227,18,153,56,275,119,263,172,249,49,193,138,134,266,272,285,273,284,218,174,180,62,22,289,169,160,283,213,99,256,250,262,201,223,155,145,135,54,214,114,188,230,200,58,170,154,291,205,292,276,15,248,3,7,234,198,259,246,295,103,55,67,239,148,226,73,104,161,78,270,94,260,195,279,6,232,197,221,151,52,71,166,60,65,59,27,51,281,68,208,98,44,111,163,132,267,31,236,269,258,199,70,287,139,77,110,241,168,140,26,86,298,116,156,167,245,149,187,278,274,29,175,76,57,209,131,64,127,158,100,129,143,177,225,10,210,84,4,280,79,97,237,152,141,184,159,88,93,9,247,257,162,91,1,41,106,271,20,294,261,171,229,147,265,150,11,21,83,35,277,125,253,240,238,12,16,164,115,182,186,235,288,203,105,282,14,293,268,108,25,220,124,286,146,30,34,109,290,215,48,157,126,231,80,23,121,219,173,45,40,204,216,192,19,63,297,85,217,251,112,2,47,206,43,92,89,133,113,190,137,179,107,95,183,36,24,123]","90","arrowright","true","2"
"","1439","canvas-keyboard-response","4","21376","0.0-4.0-0.0-0.0","arrowleft","[259,68,120,256,260,217,33,29,186,131,88,175,299,173,170,201,276,296,65,153,255,91,205,204,270,4,109,8,6,95,171,210,231,237,261,39,275,118,22,282,159,167,112,1,298,5,122,250,246,147,69,79,180,127,142,291,262,243,160,226,24,218,234,182,181,196,209,229,59,108,71,137,115,273,63,128,194,266,106,293,37,288,154,21,11,295,77,227,49,13,190,257,272,206,244,271,92,3,157,111,258,177,90,287,99,18,208,252,195,123,55,251,32,149,97,140,121,93,52,230,14,31,94,141,110,10,20,202,235,222,7,263,114,240,165,43,211,78,267,51,98,136,116,28,162,84,183,103,75,61,184,277,83,23,156,66,203,81,146,158,133,17,212,26,42,64,269,232,87,239,214,74,50,200,193,47,280,172,57,48,289,15,38,279,189,36,285,89,135,67,44,138,62,143,241,187,40,46,2,236,176,12,9,220,199,178,34,225,41,45,216,113,30,16,76,73,85,119,169,215,274,107,53,145,19,221,188,105,104,192,72,101,264,284,224,268,151,130,80,35,164,126,254,148,70,294,124,134,228,132,25,166,155,238,96,54,283,100,290,163,174,292,223,56,213,27,139,86,58,144,219,152,150,245,185,281,198,242,233,129,297,247,60,253,249,82,168,278,161,102,191,117,197,286,125,248,265,207,0,179]","85","arrowleft","true","3"
"","1165","canvas-keyboard-response","5","24453","0.0-5.0-0.0-0.0","arrowright","[235,100,173,24,48,90,107,198,240,168,30,52,214,27,8,197,66,119,96,80,62,133,273,118,88,172,85,37,203,43,26,192,183,263,115,167,50,159,9,142,188,265,28,106,285,267,245,277,174,73,248,286,227,297,116,256,298,275,39,70,250,136,84,229,152,171,130,74,177,104,154,3,58,55,22,76,238,234,34,253,10,264,269,16,137,13,17,20,246,163,178,109,117,12,140,201,206,282,176,145,223,225,111,114,181,232,68,212,166,205,222,170,290,61,195,60,44,120,255,213,268,247,98,36,184,45,121,236,129,294,0,82,239,194,288,143,38,191,257,94,110,165,42,128,219,40,158,249,156,51,32,81,287,155,157,69,252,272,231,93,46,161,251,204,31,266,175,7,289,299,123,131,134,151,211,124,199,139,279,71,262,6,243,95,72,102,182,91,138,108,125,207,101,87,148,208,281,25,4,193,189,64,237,210,162,241,35,296,169,83,49,270,149,113,144,14,224,56,179,209,99,65,258,23,47,97,63,5,261,295,242,271,79,57,135,1,283,221,19,180,186,141,75,215,147,122,220,259,291,67,112,150,202,126,218,293,160,89,21,153,284,18,92,254,185,2,105,244,276,278,54,127,260,280,230,292,187,78,226,132,29,86,59,190,15,274,33,233,41,11,77,217,164,196,228,103,146,53,216,200]","80","arrowright","true","4"
"","1448","canvas-keyboard-response","6","27810","0.0-6.0-0.0-0.0","arrowleft","[66,273,234,154,279,212,262,97,258,81,197,101,157,112,29,201,38,12,96,64,16,139,99,90,215,94,293,26,18,175,193,256,49,47,176,24,261,158,287,115,231,156,210,282,272,85,223,260,100,146,202,124,257,240,207,21,218,44,1,213,0,155,62,35,233,75,173,84,179,71,169,42,265,102,15,4,294,299,103,188,280,187,28,186,78,128,222,297,292,177,113,119,251,259,298,48,50,266,217,141,203,6,288,236,52,248,106,229,22,191,27,53,239,289,72,11,57,250,25,123,36,137,93,43,114,136,55,165,228,143,225,95,9,163,127,131,39,194,8,196,7,79,148,281,41,121,30,108,263,152,204,270,183,20,40,230,37,54,200,206,219,291,51,241,275,122,174,5,142,32,269,59,220,180,198,153,237,147,168,195,162,61,73,244,167,63,76,159,65,208,109,70,80,224,199,285,60,214,227,69,10,17,23,205,189,211,221,77,255,138,150,145,2,104,83,271,13,130,181,171,117,88,238,67,86,295,247,286,246,98,19,92,254,45,249,31,118,184,160,245,161,190,125,268,74,135,185,253,89,151,120,140,126,209,277,172,116,110,129,182,192,235,290,34,216,87,14,58,178,274,243,264,164,278,33,133,144,232,170,252,242,283,91,149,284,3,111,46,56,107,296,134,68,276,132,267,105,226,166,82]","75","arrowleft","true","5"
"","2372","canvas-keyboard-response","7","32075","0.0-7.0-0.0-0.0"," ","[56,72,245,195,201,189,178,202,139,89,4,31,84,96,213,177,117,251,127,160,234,187,291,37,273,2,113,122,25,125,295,220,155,38,82,60,128,101,21,249,256,299,116,168,54,53,156,133,209,146,180,176,279,78,41,140,164,242,240,229,210,77,16,131,275,147,181,174,142,192,81,59,64,33,123,159,36,237,207,247,22,280,8,262,0,6,7,73,197,27,143,292,12,267,69,246,79,157,55,264,76,271,185,50,294,115,52,171,231,269,169,17,98,221,47,235,132,124,266,282,298,258,212,163,92,94,119,130,61,166,23,129,285,190,138,208,35,257,162,141,182,42,26,191,111,215,32,154,91,134,296,253,106,57,120,10,110,88,293,90,225,126,14,175,19,184,250,75,216,103,13,278,158,227,58,20,104,289,74,290,11,172,261,173,188,118,196,95,68,135,236,40,49,29,136,226,183,284,203,241,238,112,165,62,30,9,206,153,1,228,46,43,48,232,100,211,198,97,71,5,152,265,276,148,83,102,34,222,67,85,217,179,255,144,24,105,287,268,230,107,18,114,244,86,297,233,80,150,3,286,167,28,239,137,194,243,214,149,15,109,219,254,108,270,45,277,252,274,200,65,39,70,63,121,248,283,66,145,161,51,281,205,151,170,193,204,218,223,272,186,93,260,259,87,199,224,99,263,44,288]","70","arrowleft","","6"
"","4447","canvas-keyboard-response","8","38421","0.0-7.1-0.1-0.1"," ","[8,37,137,85,149,289,81,299,71,129,28,80,27,213,134,147,88,106,163,254,195,139,7,4,296,278,61,281,54,46,294,249,143,114,122,128,173,165,40,230,153,215,255,171,243,111,108,220,97,13,25,266,240,272,297,142,49,180,79,32,196,257,206,1,279,197,102,207,250,75,262,160,291,175,233,83,219,209,292,148,239,210,295,251,112,170,19,157,45,145,221,189,70,77,247,76,216,116,18,104,30,274,132,184,123,73,192,47,64,225,127,237,12,159,17,118,287,282,186,36,267,9,166,105,238,20,241,66,162,87,78,158,144,211,53,290,271,244,34,280,269,298,194,263,218,181,121,29,265,91,252,92,96,264,38,0,275,26,200,3,217,198,151,199,242,253,273,156,56,125,22,82,35,52,268,261,10,188,150,182,99,138,65,117,67,48,283,191,285,231,95,202,126,2,115,15,60,141,169,5,50,214,59,167,276,93,256,41,86,187,84,107,236,131,94,212,155,286,161,31,57,24,204,124,146,100,190,133,293,203,260,228,284,248,90,6,277,119,62,101,288,140,227,43,68,44,42,205,69,33,98,234,183,185,164,224,21,222,226,259,120,89,103,135,11,179,39,172,208,154,176,72,63,258,152,74,246,245,16,201,223,168,193,55,51,229,130,23,178,110,174,270,177,235,113,136,232,14,58,109]","70","arrowleft","","6"
"","1779","canvas-keyboard-response","9","42093","0.0-7.2-0.2-0.2","arrowleft","[14,254,121,87,33,131,7,180,113,76,70,116,74,204,136,225,205,160,249,238,37,30,296,17,112,295,292,49,128,236,285,245,45,214,115,106,290,88,256,279,107,183,294,196,161,137,144,197,66,195,64,165,159,71,259,133,114,1,152,143,142,22,13,263,102,41,19,280,178,47,130,62,44,12,257,277,81,247,252,210,250,79,297,54,175,99,122,283,232,281,288,101,135,289,255,248,163,23,10,235,105,217,181,284,291,39,241,182,89,231,110,140,174,104,234,16,150,169,153,198,162,286,276,56,187,21,211,185,184,237,95,132,27,216,148,8,186,194,282,212,261,266,53,242,191,6,145,120,75,264,189,55,244,207,273,219,34,213,226,199,229,108,80,84,73,43,222,24,9,171,224,223,46,100,72,268,188,157,206,147,35,11,92,103,201,166,0,172,118,59,293,126,208,220,85,139,155,239,190,158,168,177,278,18,125,253,57,123,42,193,97,96,94,109,3,52,5,146,164,98,65,91,40,269,173,176,32,51,260,60,240,90,233,227,36,61,274,77,275,2,192,38,203,25,20,156,267,258,298,29,119,202,170,86,287,246,271,228,31,4,26,272,15,200,67,141,28,221,58,124,63,167,154,230,149,50,265,262,78,127,83,138,68,299,111,93,82,215,209,151,243,134,48,129,218,69,179,270,251,117]","70","arrowleft","true","6"
"","2209","canvas-keyboard-response","10","46195","0.0-8.0-0.0-0.0"," ","[263,43,232,215,145,241,53,138,248,9,133,71,134,82,230,152,208,286,27,28,253,41,158,0,218,66,144,180,239,173,93,101,25,266,79,91,175,223,50,289,203,113,229,182,136,94,69,99,169,240,47,98,17,4,37,197,137,154,163,81,264,220,236,70,256,3,46,110,151,279,276,278,275,114,95,11,267,194,258,209,83,298,217,235,88,155,166,193,104,19,58,189,198,261,213,188,65,26,86,74,216,246,196,249,171,49,179,282,146,277,211,177,32,225,207,153,78,201,42,35,92,157,118,250,121,44,291,109,176,18,237,296,273,61,20,174,105,191,185,219,97,75,34,150,8,183,13,159,84,48,202,265,123,127,120,67,10,271,108,288,226,170,270,164,62,161,195,131,214,60,181,212,228,23,148,29,247,162,125,284,52,106,128,222,119,40,283,140,87,107,12,102,56,31,272,231,143,57,295,187,135,297,206,90,251,45,259,224,238,290,255,2,205,103,6,204,242,22,285,36,234,14,292,7,96,112,51,186,165,243,73,122,233,269,59,244,55,130,281,111,260,294,85,245,142,200,190,38,167,33,178,89,15,210,149,168,199,280,30,252,139,54,5,72,126,257,116,64,124,132,68,115,262,156,274,21,287,16,117,293,172,129,184,77,39,141,24,100,227,192,221,147,254,268,299,63,80,76,160,1]","65","arrowleft","","7"
"","1552","canvas-keyboard-response","11","49640","0.0-8.1-0.1-0.1","arrowleft","[53,50,224,196,101,58,138,123,51,277,198,35,61,89,233,20,3,34,225,268,208,2,82,177,127,263,291,256,280,237,9,261,31,250,194,136,200,247,207,209,275,47,235,126,65,64,91,56,221,93,297,111,223,0,202,161,69,288,203,134,299,167,189,257,255,27,226,271,213,15,13,239,139,97,204,99,62,281,94,217,40,141,19,287,81,10,170,14,173,117,74,45,293,76,88,144,273,109,59,122,163,187,289,294,145,160,16,178,274,180,228,285,190,265,8,54,143,222,149,253,95,112,26,219,128,240,17,7,158,259,236,166,137,119,142,172,84,151,85,121,30,295,118,220,184,185,21,186,267,57,33,98,55,39,262,32,116,68,272,201,73,199,179,227,105,129,276,28,150,282,18,71,156,77,24,23,191,249,258,132,63,169,107,229,197,72,232,113,279,49,165,241,43,133,22,215,4,164,147,230,70,234,37,296,168,104,183,269,46,108,252,79,260,66,125,283,211,146,238,6,154,243,100,171,148,162,115,286,188,181,103,11,254,152,5,42,155,218,92,25,176,205,38,106,124,87,1,157,131,110,140,264,48,130,60,159,195,214,231,216,80,102,96,182,86,83,90,244,41,212,12,242,135,52,284,206,75,193,246,298,120,292,248,36,29,153,67,278,192,270,174,44,251,114,245,175,78,290,266,210]","65","arrowleft","true","7"
"","3638","canvas-keyboard-response","12","55159","0.0-9.0-0.0-0.0","arrowleft","[100,293,77,71,111,251,278,164,298,82,299,133,283,93,156,277,38,87,25,88,32,174,276,123,84,113,185,139,141,167,24,259,264,40,147,135,226,181,230,297,186,9,81,105,34,1,132,217,221,121,74,143,70,97,86,231,78,270,79,117,56,245,158,69,193,53,249,256,140,236,3,102,223,4,19,10,195,60,61,175,89,131,8,172,36,63,2,206,255,103,144,136,212,94,262,48,22,161,80,145,250,166,272,229,194,268,228,65,73,170,173,120,237,219,184,177,233,37,127,210,96,45,83,273,296,282,118,109,13,168,260,266,6,125,128,138,107,58,176,112,288,257,248,154,220,289,23,41,146,27,98,171,269,159,12,280,291,243,200,150,122,50,169,148,15,225,67,239,21,203,285,14,114,90,207,222,287,165,7,202,92,11,232,182,242,235,153,66,163,5,211,116,183,152,75,134,292,209,43,201,26,149,55,28,179,91,196,52,215,57,157,263,124,68,51,238,192,187,106,64,197,188,275,261,290,213,294,151,18,281,284,54,218,246,234,110,162,214,279,252,240,160,76,29,205,49,72,39,137,204,108,95,101,126,115,155,46,42,295,199,33,130,247,180,178,59,267,85,99,190,17,216,254,31,142,265,119,16,189,208,20,274,286,129,0,227,47,44,271,35,253,104,244,224,241,62,198,191,30,258]","60","arrowleft","true","8"
"","2095","canvas-keyboard-response","13","59127","0.0-10.0-0.0-0.0"," ","[82,217,229,209,273,73,174,232,239,93,284,47,78,279,71,203,296,50,120,210,129,155,294,136,119,195,126,42,255,33,292,206,92,23,86,30,43,66,208,29,278,84,132,288,262,188,285,170,286,152,62,215,39,151,266,186,268,104,242,140,103,237,221,102,207,159,218,264,123,9,70,107,130,157,105,135,252,113,27,271,299,36,72,267,21,181,64,5,117,190,121,201,276,153,2,175,281,185,116,199,38,109,219,124,137,269,189,128,8,257,16,111,148,12,81,231,149,83,75,99,108,162,244,20,125,223,164,192,212,298,46,59,291,74,146,55,25,115,200,204,243,89,265,87,68,214,141,61,32,290,24,295,270,138,98,202,173,165,176,144,80,254,76,240,169,193,100,145,88,226,216,15,259,194,139,63,133,19,58,245,114,147,122,282,154,156,118,211,196,236,246,110,127,56,85,179,178,143,41,94,280,40,263,7,52,251,167,26,287,163,18,289,247,35,160,184,168,54,297,53,51,1,258,65,213,233,228,272,4,37,112,44,250,275,225,238,227,60,45,197,235,161,69,191,241,57,79,187,22,14,166,274,90,48,180,230,177,95,67,101,91,293,142,77,220,131,234,182,97,261,134,222,49,171,205,0,260,249,158,183,28,106,277,283,172,31,34,10,11,224,17,248,150,256,13,96,198,3,253,6]","55","arrowright","","9"
"","939","canvas-keyboard-response","14","61927","0.0-10.1-0.1-0.1"," ","[97,128,92,192,96,190,24,74,163,124,176,57,288,173,11,249,154,235,217,297,2,104,243,36,107,65,252,127,117,114,258,28,130,39,269,229,291,146,180,0,271,268,136,169,102,296,37,228,142,103,289,214,101,22,239,78,66,100,202,204,195,43,283,280,223,237,221,91,213,158,210,106,20,232,89,123,231,207,76,191,245,270,29,144,140,278,157,170,242,185,199,62,8,141,94,129,166,240,225,143,273,87,203,294,19,184,194,219,298,6,162,5,172,9,25,183,188,81,111,21,115,17,10,119,33,138,132,71,292,263,46,31,248,265,69,198,253,53,274,299,116,110,168,164,147,98,88,206,205,209,230,261,70,83,18,60,72,47,161,189,227,12,284,238,234,277,215,30,281,120,156,95,286,40,266,267,122,139,41,171,3,45,7,178,90,64,193,218,262,196,126,44,23,56,216,175,285,32,14,80,131,272,99,220,112,181,121,109,295,260,150,290,137,149,287,49,55,51,208,187,259,85,250,84,279,186,177,247,1,151,251,52,26,200,212,67,160,165,68,254,61,148,42,264,13,256,226,255,145,133,16,48,293,27,222,108,63,38,4,241,155,167,211,93,236,50,125,134,246,15,275,79,153,54,276,233,152,77,174,224,244,282,59,135,179,58,35,118,113,159,86,182,105,82,75,197,257,73,201,34]","55","arrowright","","9"
"","2213","canvas-keyboard-response","15","66053","0.0-10.2-0.2-0.2"," ","[285,19,211,143,84,22,110,298,193,290,253,46,189,42,132,126,280,118,153,164,56,224,240,57,59,198,125,117,181,255,220,141,86,256,144,7,203,230,274,142,129,24,184,199,1,16,89,207,251,221,26,174,65,297,82,137,47,229,0,235,152,244,161,116,88,44,40,219,106,154,64,268,35,227,135,12,158,250,234,151,245,217,269,76,49,115,66,87,121,97,169,83,192,15,114,212,157,263,261,63,130,222,18,107,36,90,239,2,10,52,123,55,259,113,246,112,79,208,58,71,163,111,124,218,204,264,292,140,247,248,270,225,96,215,149,195,231,267,180,128,252,108,13,136,277,70,232,138,78,17,160,4,236,200,197,93,69,186,257,67,81,120,283,233,68,210,91,30,39,188,238,102,272,226,262,53,214,33,243,279,34,146,3,194,62,254,271,127,29,191,32,172,171,156,299,105,187,77,73,43,177,206,281,80,196,54,205,25,159,5,133,95,74,131,183,11,223,147,260,296,50,103,134,162,282,190,165,213,176,27,241,265,216,60,173,155,266,273,175,288,85,122,275,286,166,23,258,170,201,48,237,45,249,168,287,119,182,104,145,100,209,242,38,284,293,294,276,101,28,167,278,179,8,139,20,61,41,202,178,37,109,6,291,51,289,21,185,92,98,94,9,14,31,75,72,99,295,228,148,150]","55","arrowright","","9"
"","1103","canvas-keyboard-response","16","69018","0.0-10.3-0.3-0.3","arrowleft","[100,212,130,218,186,10,0,102,151,20,232,158,22,125,150,189,240,14,127,184,5,242,233,114,291,131,227,91,94,237,265,200,286,61,165,16,152,6,137,42,139,99,17,203,40,93,62,109,282,213,196,122,60,115,191,77,143,112,74,211,162,171,273,266,267,108,235,248,214,259,43,47,202,217,179,206,166,53,24,19,159,144,28,157,221,9,281,25,243,219,111,142,11,113,34,226,89,180,126,104,228,2,195,12,52,30,3,87,65,261,134,123,117,26,135,251,290,106,262,276,260,252,183,140,293,76,147,88,67,138,236,120,48,66,204,208,285,71,245,119,258,50,146,96,263,161,231,181,182,201,64,92,35,57,176,4,95,132,86,39,70,187,46,277,33,198,210,284,268,172,80,294,269,31,136,154,287,173,278,75,29,188,153,224,37,295,215,170,247,223,156,21,169,103,246,225,288,164,229,271,299,116,168,56,13,15,167,23,190,274,27,160,58,194,54,289,220,253,185,8,174,72,49,98,36,279,234,101,107,145,149,280,141,68,298,193,283,192,18,63,255,209,97,178,222,45,81,148,129,239,90,249,118,73,175,85,296,128,272,155,257,124,1,250,256,275,110,79,32,238,207,270,83,82,55,69,244,216,121,197,41,38,51,297,7,264,133,84,59,105,177,241,163,292,44,205,199,230,254,78]","55","arrowright","false","9"
"","2643","canvas-keyboard-response","17","73608","0.0-11.0-0.0-0.0"," ","[136,130,74,38,299,37,229,198,181,236,218,188,25,138,162,132,177,65,248,197,55,79,278,271,3,163,249,210,287,84,134,35,48,179,19,67,87,296,118,61,71,124,146,63,83,159,252,241,192,101,143,157,184,289,4,139,202,88,76,128,294,5,185,16,152,297,151,135,93,217,226,17,106,122,280,209,259,147,168,207,28,268,221,89,242,32,137,53,46,250,235,85,121,253,172,247,82,274,272,107,160,216,222,161,59,80,30,60,110,57,213,150,176,277,225,29,264,117,246,113,34,58,170,276,211,182,99,261,9,175,238,120,266,62,112,180,41,45,255,91,285,292,40,27,231,178,237,293,244,239,86,94,114,245,286,22,36,14,164,190,123,144,103,39,215,2,0,97,142,77,105,47,243,68,187,1,75,234,52,189,191,233,295,167,11,72,227,169,111,127,199,96,224,258,186,166,54,171,64,195,158,262,193,279,260,21,51,173,95,18,201,200,298,155,6,7,66,148,115,205,133,24,282,126,267,263,240,283,230,208,145,291,290,44,100,78,206,223,13,12,26,119,31,232,81,256,281,129,92,149,156,196,50,125,116,251,265,109,214,288,70,219,104,102,131,194,203,33,183,73,154,141,20,273,212,108,254,257,56,8,275,140,153,165,270,69,220,269,15,90,204,10,42,23,284,174,98,43,228,49]","50","arrowright","","10"
"","918","canvas-keyboard-response","18","76397","0.0-11.1-0.1-0.1"," ","[63,247,241,200,275,112,53,22,250,265,94,51,113,104,233,57,69,1,179,261,199,119,74,47,12,221,211,36,273,75,14,128,187,118,183,9,193,287,84,30,180,288,110,71,242,272,260,65,160,167,214,207,44,176,282,17,137,72,4,240,161,208,280,81,252,216,55,67,228,105,246,293,76,131,45,26,52,238,133,163,95,271,251,225,7,92,16,190,243,58,80,219,107,59,108,171,66,278,249,124,234,217,298,54,49,109,18,23,98,148,93,166,245,266,253,196,224,111,142,295,162,115,143,226,6,165,28,218,122,117,284,158,120,222,192,212,262,184,170,134,29,248,147,146,33,264,194,155,168,79,281,210,258,276,97,50,197,173,42,100,191,186,86,24,139,127,61,239,135,27,297,277,2,48,78,31,209,64,270,269,152,11,150,149,89,185,77,230,102,290,177,32,83,286,41,46,151,70,62,154,43,292,159,299,91,136,227,68,140,121,201,256,220,60,20,175,294,126,235,223,132,244,231,37,103,19,181,156,96,213,296,259,85,123,182,274,145,56,13,125,255,38,82,5,232,285,289,188,254,3,198,35,268,203,157,114,204,174,141,116,205,40,206,279,202,267,153,15,106,90,34,257,164,144,195,39,169,263,291,138,283,87,73,172,25,178,8,88,101,229,215,236,99,129,0,21,189,237,130,10]","50","arrowright","","10"
"","6301","canvas-keyboard-response","19","84680","0.0-11.2-0.2-0.2","arrowright","[211,258,206,286,235,106,39,21,88,129,169,18,228,45,20,13,19,201,6,22,64,17,32,93,126,185,266,143,38,72,51,248,14,134,218,119,198,229,213,145,90,151,57,264,91,26,290,146,280,30,120,47,94,284,208,295,276,291,195,219,253,29,296,158,281,230,148,10,159,299,236,260,73,287,60,175,207,55,7,61,100,271,11,99,177,239,71,166,85,257,282,197,234,241,58,113,187,132,25,16,154,74,124,141,117,78,5,214,114,104,127,269,0,238,23,87,194,245,297,149,210,33,172,293,76,285,31,133,137,184,233,80,1,130,231,153,265,135,226,193,250,164,128,109,97,2,168,156,67,59,68,171,274,196,53,46,56,42,259,140,270,107,246,182,98,157,176,180,225,255,147,40,12,170,121,202,209,183,190,139,263,43,216,173,62,9,288,215,252,204,24,221,254,203,79,105,131,89,237,192,242,167,289,122,298,161,181,15,8,125,272,138,27,292,251,116,256,222,142,212,220,37,36,205,162,224,283,227,186,200,267,70,123,49,232,95,144,103,136,240,115,4,108,52,244,75,77,188,48,44,28,83,277,34,102,112,294,3,69,268,63,118,35,50,275,163,261,92,199,179,174,278,41,191,111,101,165,65,54,189,82,155,86,223,110,84,96,243,150,160,217,152,178,81,249,66,273,279,262,247]","50","arrowright","true","10"
"","1851","canvas-keyboard-response","20","88383","0.0-12.0-0.0-0.0"," ","[197,191,202,242,23,283,209,64,154,127,231,217,85,239,273,77,88,206,13,174,124,212,82,149,61,20,297,50,69,255,136,190,129,208,132,207,70,194,266,224,250,133,57,176,262,119,274,278,60,134,252,1,118,74,247,25,280,279,71,113,98,73,135,46,267,33,131,14,264,15,6,263,287,299,257,223,243,22,237,105,220,44,31,204,296,215,261,236,192,87,216,187,21,81,233,229,153,16,180,272,120,244,227,94,277,163,144,179,201,168,146,51,138,282,269,166,95,19,173,152,188,65,289,276,40,58,165,245,205,286,107,238,83,54,96,80,92,175,126,221,89,268,17,86,198,4,62,200,265,122,251,230,155,52,210,147,9,292,256,186,161,112,145,184,7,72,232,248,99,116,177,291,42,181,56,41,101,104,78,90,222,63,293,170,10,225,226,290,158,37,123,228,203,12,150,258,253,160,43,167,59,298,68,171,211,117,151,178,137,128,271,241,48,189,29,164,140,288,139,143,259,100,36,249,183,172,49,213,47,294,32,219,193,254,75,214,285,8,67,162,196,141,24,281,11,76,148,159,97,109,246,0,284,234,185,27,35,3,111,199,157,28,66,30,93,18,108,39,2,270,169,114,55,195,106,5,115,91,34,130,84,156,110,125,295,45,79,275,142,240,182,235,260,103,38,218,53,121,26,102]","45","arrowleft","","11"
"","1321","canvas-keyboard-response","21","91560","0.0-12.1-0.1-0.1","arrowright","[69,251,119,124,197,200,129,22,268,95,169,287,93,271,187,299,42,145,63,157,2,254,99,153,243,29,44,226,284,151,259,18,56,137,175,103,289,114,111,48,97,52,94,234,117,115,224,21,148,58,274,185,141,73,164,261,219,184,155,158,256,140,86,123,113,23,276,154,104,92,208,45,253,96,272,34,83,167,294,222,54,282,71,162,67,196,106,288,204,43,156,193,202,159,231,134,221,75,228,182,105,126,4,88,102,225,144,85,176,47,232,91,238,190,229,163,206,216,241,257,150,12,172,233,180,220,211,265,32,170,189,60,292,68,64,10,53,81,194,121,27,132,278,270,142,161,130,139,223,3,76,15,6,286,116,203,188,118,57,70,28,260,89,264,101,198,279,168,65,160,267,248,277,62,249,84,19,239,87,55,246,9,230,127,201,152,297,0,30,125,205,35,49,250,40,1,296,227,78,31,262,285,8,110,74,280,66,133,100,143,291,255,283,138,235,165,120,178,108,17,218,293,207,59,242,252,72,266,281,147,25,171,109,5,177,263,192,269,51,290,38,186,82,245,275,79,24,98,26,50,11,298,191,236,240,36,295,149,244,122,20,146,112,213,179,199,131,107,90,37,210,195,209,128,212,33,214,183,181,135,13,14,39,16,41,215,237,247,217,258,80,136,174,273,7,61,77,166,46,173]","45","arrowleft","false","11"
"","2128","canvas-keyboard-response","22","95596","0.0-13.0-0.0-0.0","arrowright","[199,183,78,156,170,203,291,162,42,182,167,265,60,140,81,299,24,219,242,253,138,126,205,213,76,147,47,73,101,255,202,17,135,210,77,268,145,32,201,152,61,6,272,168,27,245,146,75,83,174,161,186,247,13,136,12,155,43,235,223,51,229,256,23,241,172,19,283,7,263,289,215,157,137,252,181,151,65,115,217,102,55,214,120,21,228,154,185,86,233,112,10,34,208,9,288,104,294,278,158,39,198,262,53,88,297,269,281,64,254,133,225,149,163,8,127,188,82,237,261,59,165,271,159,176,277,89,144,36,111,298,70,206,190,79,194,129,119,177,287,26,285,118,105,279,150,197,69,284,38,209,22,230,52,189,143,246,96,276,125,106,267,166,169,293,292,295,68,93,33,67,128,184,25,243,275,231,91,124,85,178,216,2,187,280,240,212,16,50,14,108,99,130,153,273,30,57,28,54,31,20,117,5,200,286,192,251,249,142,18,15,290,121,244,45,270,46,97,179,160,48,71,274,37,226,234,196,109,44,103,238,296,173,11,95,221,266,74,260,94,40,227,195,107,72,90,114,123,148,222,171,84,207,141,180,139,62,98,92,0,248,282,204,250,175,100,29,211,258,193,132,58,49,3,113,1,164,257,218,259,80,41,224,87,66,220,35,134,56,232,63,191,131,264,122,4,239,236,116,110]","40","arrowleft","false","12"
"","2270","canvas-keyboard-response","23","99755","0.0-14.0-0.0-0.0"," ","[4,199,223,64,181,248,126,289,164,169,86,140,51,42,98,148,267,49,21,295,103,128,31,274,177,44,134,220,189,76,174,19,78,247,144,263,238,71,61,35,10,87,3,197,26,258,56,214,185,32,112,95,251,191,27,279,265,118,226,229,107,168,173,222,194,218,281,60,119,288,190,129,249,286,184,237,230,82,80,79,213,186,37,182,156,73,93,170,11,97,271,48,130,261,159,180,257,166,47,54,192,143,55,150,293,196,23,1,124,111,259,227,16,203,89,38,277,155,13,146,275,135,109,264,91,50,29,160,90,20,2,273,147,62,149,58,287,252,81,5,236,188,116,137,108,123,243,162,100,83,210,235,30,299,255,63,241,28,157,163,106,240,253,228,152,133,297,179,139,193,215,285,57,120,105,53,117,142,127,101,70,39,272,242,52,94,224,187,244,136,125,67,282,43,298,25,0,161,208,198,74,207,46,7,158,292,269,34,138,151,290,69,221,296,154,254,22,195,45,92,96,8,68,102,141,9,85,280,205,15,14,217,262,232,245,204,234,131,231,201,18,175,294,216,121,178,115,110,209,270,256,233,88,66,202,36,6,183,132,75,219,153,291,145,239,122,12,72,84,276,113,41,260,211,200,33,165,172,40,212,246,283,104,99,278,167,171,250,77,59,225,24,266,17,65,114,176,206,284,268]","35","arrowright","","13"
"","708","canvas-keyboard-response","24","102342","0.0-14.1-0.1-0.1"," ","[15,124,195,56,264,135,257,39,88,275,198,263,176,174,143,128,3,178,10,192,122,77,30,87,184,8,226,224,270,223,61,265,90,58,287,194,101,28,155,278,232,230,182,219,162,284,78,97,48,150,2,76,253,288,164,240,245,29,297,207,217,180,133,109,151,75,296,126,86,127,141,4,244,294,283,91,203,196,117,210,169,129,144,105,197,241,243,32,131,113,227,35,190,231,259,134,60,19,17,93,5,218,225,80,266,291,9,261,172,262,74,267,290,268,161,298,175,43,168,89,249,158,64,57,96,239,165,81,208,204,201,66,44,248,163,177,119,280,55,16,154,258,185,171,1,42,18,246,228,209,285,142,157,84,63,191,147,95,37,34,110,7,211,46,11,114,27,68,215,65,31,153,272,24,234,235,279,85,140,255,47,193,205,254,118,98,53,213,295,82,156,236,62,160,233,281,200,14,20,237,149,252,276,292,221,121,120,145,112,181,214,103,293,187,206,269,170,299,199,229,50,136,115,123,67,99,146,260,83,106,38,132,183,36,139,41,250,92,69,70,148,173,52,166,251,256,289,220,130,108,116,26,277,72,212,102,73,12,6,54,167,188,22,59,125,189,111,286,179,25,238,159,242,0,273,271,247,216,23,71,222,79,137,94,274,104,45,51,49,186,21,40,282,100,13,202,33,138,152,107]","35","arrowright","","13"
"","934","canvas-keyboard-response","25","105190","0.0-14.2-0.2-0.2","arrowright","[57,30,193,109,250,265,94,46,239,221,84,203,91,114,144,254,95,4,157,231,147,267,235,284,54,113,92,71,253,83,132,21,122,151,176,38,23,97,188,13,99,194,76,163,293,18,3,234,153,8,51,202,14,106,137,280,183,39,158,195,79,164,44,246,185,35,138,159,274,263,168,189,86,89,119,123,272,40,74,101,12,73,167,290,36,205,296,297,146,209,208,236,6,295,298,292,70,186,198,112,22,118,224,211,15,247,41,266,116,43,25,210,285,64,257,252,187,103,117,142,108,49,149,182,136,206,125,104,229,133,128,124,42,10,277,264,96,130,273,191,173,93,62,140,166,111,88,223,72,134,11,184,225,24,33,227,174,190,217,241,160,161,278,77,286,81,139,58,251,192,135,85,141,19,230,268,29,102,179,249,143,270,129,258,242,34,213,162,237,53,259,90,52,226,82,171,204,200,218,260,240,78,199,45,207,243,155,289,220,216,148,180,126,32,2,279,178,269,61,131,276,181,20,121,27,75,37,275,177,150,68,291,175,127,256,115,107,248,169,100,201,26,66,212,262,196,80,65,0,59,287,228,271,63,154,69,261,299,120,244,165,87,282,172,9,60,110,17,170,233,5,214,219,7,56,31,105,48,98,222,67,197,50,245,283,232,16,156,255,55,294,145,1,215,47,281,152,238,288,28]","35","arrowright","true","13"
"","2316","canvas-keyboard-response","26","109589","0.0-15.0-0.0-0.0","arrowleft","[232,133,28,70,276,42,243,43,195,59,283,250,33,191,63,185,11,271,54,166,122,124,41,4,3,220,102,2,294,188,246,202,291,179,117,173,154,222,99,83,253,93,26,48,182,217,37,67,272,252,181,44,256,78,66,169,242,135,198,263,45,174,247,189,249,175,196,13,110,282,262,228,47,176,123,64,297,32,171,88,68,50,261,6,136,267,236,146,132,292,233,299,12,200,266,61,269,139,264,289,230,248,205,34,74,39,81,10,30,259,75,109,5,186,119,151,178,103,116,235,145,144,76,65,165,160,92,281,90,29,126,280,89,240,161,125,53,284,221,206,274,94,150,156,286,295,118,234,197,255,143,129,17,245,147,22,298,152,237,279,142,180,57,107,278,193,231,177,60,153,170,241,210,163,96,140,270,84,95,290,120,40,36,218,159,224,21,223,209,138,52,296,1,51,7,157,273,213,287,18,201,114,251,134,158,56,113,226,268,155,190,275,277,98,204,239,49,115,58,112,162,25,0,108,101,9,192,8,79,288,257,238,184,244,164,225,127,167,14,149,16,219,168,214,128,258,215,71,19,199,111,27,121,187,254,82,85,137,212,293,77,141,20,131,148,285,91,105,69,207,73,227,211,38,62,260,216,106,100,172,86,55,194,23,87,130,97,229,35,72,265,104,203,24,46,15,208,80,31,183]","30","arrowright","false","14"
"","877","canvas-keyboard-response","27","112319","0.0-16.0-0.0-0.0"," ","[241,234,28,146,33,291,37,281,213,129,100,103,88,194,4,6,127,226,238,240,11,215,71,79,16,198,20,63,19,47,161,252,41,187,12,185,136,151,97,94,59,76,158,221,209,199,206,201,280,5,223,172,157,78,86,87,212,29,163,254,98,137,181,155,74,121,105,31,68,130,284,81,277,45,192,144,251,193,261,111,107,36,272,56,117,35,53,246,232,125,149,197,200,171,196,23,14,264,114,145,166,123,295,288,101,190,250,219,154,69,64,287,112,183,139,40,116,170,247,156,260,52,216,131,84,38,191,283,25,231,205,203,147,242,153,262,176,263,214,75,21,168,50,65,60,253,297,160,115,102,178,282,180,218,292,259,270,217,119,249,124,70,165,22,244,85,93,271,72,99,95,133,266,34,173,224,208,132,140,235,90,143,15,293,245,265,179,275,2,82,134,142,51,3,58,120,167,42,255,258,298,274,62,184,188,285,150,273,73,24,162,77,48,104,80,148,227,289,44,128,222,159,248,299,279,290,8,18,43,276,210,239,135,106,32,257,54,118,39,122,229,89,164,278,57,67,189,126,236,138,294,207,46,61,237,9,92,0,256,186,233,109,113,220,17,296,26,108,202,182,55,110,169,1,49,269,7,268,204,66,174,228,175,195,152,27,211,141,177,230,286,225,13,10,83,30,91,96,267,243]","25","arrowright","","15"
"","760","canvas-keyboard-response","28","115596","0.0-16.1-0.1-0.1"," ","[137,103,203,167,153,141,209,218,193,162,284,286,216,183,2,19,189,130,237,58,138,17,205,51,139,165,182,154,249,188,68,90,173,150,217,143,83,254,134,63,31,152,241,208,213,13,155,233,61,235,174,297,4,148,292,262,129,263,127,126,274,264,294,74,144,252,268,258,42,273,114,119,295,171,225,288,15,16,259,287,238,131,124,80,91,140,206,3,60,279,100,8,232,125,220,221,54,77,211,41,266,76,107,86,231,113,89,33,66,214,105,57,40,245,128,290,21,65,187,236,108,99,11,163,53,251,39,123,278,158,240,272,87,223,243,275,23,159,14,281,229,280,104,210,52,212,157,95,12,277,219,29,81,32,202,239,201,285,156,115,255,85,118,247,120,25,92,56,224,257,72,45,35,18,149,197,178,84,110,270,133,276,43,10,164,283,73,228,44,227,106,9,93,200,215,24,191,67,50,27,282,5,64,190,234,36,88,142,26,169,71,112,271,136,145,166,0,246,101,289,230,102,111,250,160,34,296,121,97,175,22,20,172,207,260,59,151,168,195,82,38,293,37,6,179,146,62,117,7,269,94,109,194,161,196,135,28,204,248,186,261,192,1,226,298,75,291,98,180,70,181,185,96,132,69,253,55,116,222,256,78,48,299,176,46,122,267,170,265,147,184,199,177,79,47,30,242,49,244,198]","25","arrowright","","15"
"","72","canvas-keyboard-response","29","118293","0.0-16.2-0.2-0.2"," ","[295,275,94,185,123,203,1,146,176,210,127,98,200,288,99,39,8,168,241,70,86,71,155,255,291,164,233,148,192,20,5,117,140,80,267,26,278,272,2,48,263,58,120,112,134,92,125,72,260,216,293,296,213,139,195,114,171,41,231,73,234,221,77,56,166,165,258,142,232,254,161,220,124,133,150,188,88,248,43,297,280,54,156,186,214,175,95,279,162,173,97,147,89,157,208,4,81,12,67,51,138,167,116,74,223,83,154,174,143,110,105,14,294,250,184,3,129,78,285,130,40,122,194,100,153,101,52,273,204,141,209,104,230,284,222,79,93,121,160,178,281,187,159,199,158,151,55,229,109,106,28,205,33,256,69,66,103,274,10,198,64,82,266,191,137,252,13,207,286,96,19,24,115,228,253,46,283,61,226,62,277,190,63,91,179,7,292,35,243,265,271,90,257,276,27,59,37,25,170,172,299,38,44,31,102,193,247,17,189,126,298,235,249,287,29,149,45,212,16,23,180,244,6,85,53,132,163,201,239,107,76,251,196,21,211,218,9,259,87,238,42,290,242,237,34,183,282,135,219,145,11,225,57,152,217,36,144,119,131,30,75,108,236,60,264,84,202,65,289,128,245,169,269,15,206,118,261,177,0,18,197,50,246,215,32,262,182,270,227,224,47,268,49,240,113,68,22,136,111,181]","25","arrowright","","15"
"","3135","canvas-keyboard-response","30","124483","0.0-16.3-0.3-0.3"," ","[1,3,99,106,128,32,140,82,210,189,190,213,163,30,81,247,139,284,84,91,79,114,162,223,112,111,195,218,286,43,292,182,206,228,16,235,105,158,178,29,8,184,240,4,238,220,154,193,197,203,147,287,227,148,69,127,89,221,110,80,180,299,37,64,36,116,98,186,53,42,19,100,259,209,72,283,208,290,291,280,54,21,279,249,237,70,254,123,214,117,136,18,141,40,88,262,52,10,278,15,2,22,244,236,252,48,41,153,199,109,87,151,108,103,33,6,102,207,143,66,169,38,49,120,35,113,257,285,107,26,268,24,281,288,277,177,75,13,200,265,5,231,211,146,159,289,270,14,90,31,276,264,248,168,157,176,63,205,234,78,181,175,256,267,23,45,253,293,160,198,271,224,150,245,222,126,171,92,135,57,46,25,97,20,7,230,239,118,167,58,194,187,47,251,115,142,124,130,232,242,215,67,50,0,295,95,296,185,241,68,101,273,229,56,62,121,188,196,226,122,94,212,86,217,83,294,65,76,145,155,179,152,144,174,164,282,17,261,258,132,12,297,129,246,266,44,131,161,298,272,34,74,202,119,173,219,172,275,269,60,71,11,61,138,28,55,165,125,192,51,77,149,191,204,255,201,225,274,243,250,263,133,27,183,59,73,9,216,85,93,104,156,166,233,260,170,137,96,39,134]","25","arrowright","","15"
"","3498","canvas-keyboard-response","31","129863","0.0-16.4-0.4-0.4","arrowright","[54,238,6,55,31,226,241,132,33,161,165,191,171,75,262,15,61,236,221,90,258,299,260,23,145,286,13,7,3,154,229,272,227,183,32,278,148,118,35,103,204,125,249,190,107,2,136,141,280,179,100,144,182,228,205,130,162,82,225,194,187,36,106,72,237,208,30,156,177,232,295,244,101,267,167,150,186,211,202,85,220,80,99,133,38,64,119,40,263,53,149,155,265,111,12,105,21,44,213,166,234,62,197,298,108,289,28,157,102,143,176,128,198,259,49,79,146,181,242,42,126,283,240,264,282,296,287,297,37,129,266,212,70,60,231,168,112,19,22,10,152,200,9,285,98,216,196,140,268,117,207,160,158,114,246,189,245,255,104,124,83,288,1,5,169,56,294,115,131,271,142,174,222,243,252,281,123,63,233,135,71,215,81,91,193,0,276,159,164,279,110,248,247,92,137,86,51,34,48,210,24,43,29,69,153,93,253,25,230,293,284,18,201,184,94,192,16,47,178,206,20,73,188,76,257,57,270,74,88,59,84,138,122,11,292,224,219,203,163,139,65,251,95,96,147,290,209,151,275,39,109,127,218,170,66,45,269,239,254,14,134,116,185,27,113,26,173,214,67,180,50,46,58,273,120,97,277,256,17,89,235,223,52,291,199,41,172,261,78,87,274,195,217,4,121,68,175,8,77,250]","25","arrowright","true","15"
"","6561","canvas-keyboard-response","32","138270","0.0-17.0-0.0-0.0","arrowright","[117,39,151,57,232,264,257,14,287,178,227,84,276,109,169,135,197,93,272,22,64,86,1,168,15,119,115,259,291,175,89,50,9,69,196,254,298,49,281,158,199,174,185,75,202,7,30,225,17,265,105,263,223,248,240,68,40,26,18,73,67,194,2,293,122,125,97,121,162,94,51,127,211,275,34,198,256,157,6,25,83,236,65,104,138,205,189,218,66,106,283,296,182,142,153,179,167,11,258,295,5,238,123,72,166,207,111,101,224,271,250,234,219,0,85,237,269,81,255,217,288,171,118,79,239,145,212,147,160,59,8,192,243,201,246,54,128,206,19,102,98,87,245,163,231,52,204,241,41,29,290,214,36,242,38,133,134,165,208,221,116,92,24,76,230,96,140,132,149,270,249,144,131,289,277,136,55,215,4,297,113,20,159,154,100,285,90,46,10,247,228,184,43,191,141,268,28,282,173,88,61,103,71,56,193,266,23,226,33,12,70,114,47,220,261,74,63,16,181,60,274,161,95,44,280,37,233,45,148,210,53,203,112,195,262,252,150,190,200,216,294,99,260,139,183,156,177,176,108,107,180,267,273,35,124,31,292,129,48,229,120,42,32,82,3,253,27,130,91,213,21,155,80,186,188,77,126,62,137,58,170,251,143,286,172,164,244,279,222,110,152,235,284,13,146,78,187,299,209,278]","20","arrowleft","false","16"
"","12032","canvas-keyboard-response","33","152171","0.0-18.0-0.0-0.0","arrowleft","[62,64,144,97,48,281,158,179,127,180,31,99,112,138,255,154,87,197,210,224,26,18,114,28,143,266,213,227,129,284,226,258,137,145,88,168,8,81,238,265,132,161,113,103,9,216,49,159,149,85,70,105,83,162,176,69,261,94,78,186,183,133,55,287,130,251,257,119,107,117,102,148,175,271,297,150,21,1,7,274,293,43,29,90,71,155,253,217,92,34,299,79,212,270,278,46,142,252,47,59,160,111,177,242,156,164,151,147,223,30,262,65,298,17,84,292,203,24,174,221,120,67,283,12,124,286,295,75,136,250,239,108,279,222,60,167,273,11,272,231,141,42,115,200,36,173,10,135,50,3,58,171,269,229,2,140,291,289,202,54,233,215,198,230,93,37,264,248,96,170,181,123,139,208,172,20,191,19,267,63,126,276,80,91,256,285,4,157,260,146,27,82,73,77,245,152,76,237,134,228,259,282,125,66,243,5,72,98,184,196,275,104,218,116,169,153,39,45,40,247,0,51,290,101,246,23,268,15,53,16,193,201,190,211,32,194,296,204,52,235,74,294,277,122,86,35,220,254,263,207,214,209,166,41,225,118,234,95,38,199,128,195,89,100,6,241,205,165,68,232,110,131,106,288,219,109,280,249,61,25,185,33,56,236,182,187,178,121,188,206,14,240,22,244,192,13,189,163,44,57]","15","arrowright","false","17"
"","2583","canvas-keyboard-response","34","156634","0.0-19.0-0.0-0.0","arrowright","[164,142,75,36,2,134,35,177,23,286,32,70,278,210,292,189,260,94,55,26,29,187,93,174,217,14,79,227,157,17,54,247,25,268,51,192,43,274,190,159,148,52,84,172,91,131,287,213,57,272,225,85,207,261,126,200,249,242,203,204,155,265,201,40,244,61,194,0,56,224,30,116,103,41,24,161,6,280,238,90,139,149,197,297,128,160,243,246,124,110,59,105,65,231,208,46,256,216,144,136,125,289,107,48,215,122,81,240,33,68,89,74,273,147,27,195,138,235,143,18,219,121,223,228,262,239,22,277,114,50,253,130,214,193,198,118,175,252,181,263,108,248,47,119,78,37,152,245,291,222,101,202,39,226,209,73,150,251,295,10,62,154,237,220,191,284,109,63,11,82,264,102,257,140,53,196,104,42,3,166,250,49,211,137,95,113,16,182,186,266,58,98,69,258,229,221,255,67,230,285,270,232,127,4,66,71,129,151,120,86,294,298,123,188,234,281,44,163,38,283,9,8,180,296,183,254,96,282,77,236,178,171,135,117,76,293,288,299,100,212,88,145,133,31,169,269,218,115,279,80,111,1,259,112,13,97,176,34,87,15,153,106,12,241,28,275,173,132,233,167,168,185,290,92,60,99,199,156,162,276,170,158,20,206,141,165,146,5,72,271,64,267,21,45,19,184,179,7,83,205]","10","arrowright","true","18"
"","3524","canvas-keyboard-response","35","162068","0.0-20.0-0.0-0.0","arrowright","[95,272,259,124,59,237,83,216,217,68,186,141,252,16,118,155,43,117,115,248,229,126,66,239,70,25,283,134,150,205,26,85,81,133,250,275,140,235,36,207,142,157,175,53,129,21,93,52,73,170,137,284,158,19,161,268,176,64,169,258,242,145,291,168,249,238,295,29,194,172,177,228,123,245,193,4,243,159,87,23,270,72,116,164,213,144,38,212,135,6,82,113,125,163,20,121,189,149,246,178,79,202,88,101,65,165,233,24,3,132,8,7,227,32,160,274,247,119,14,131,122,203,100,97,232,182,44,92,230,48,278,219,34,263,77,162,63,80,209,127,151,90,75,225,108,224,255,71,31,200,147,271,188,266,254,264,49,1,98,290,35,15,166,191,110,39,294,61,50,55,96,226,173,69,78,231,5,13,76,244,221,260,10,280,58,240,112,54,139,183,153,105,192,269,2,222,210,251,296,234,67,143,18,167,152,102,253,57,120,261,114,195,86,154,89,156,136,236,74,190,187,198,286,199,208,181,12,279,47,282,107,276,128,215,27,257,46,292,0,214,285,94,56,109,287,111,196,185,62,197,201,293,223,84,148,37,298,9,267,103,42,146,41,273,289,180,211,256,60,45,104,281,204,174,206,179,28,218,33,265,106,299,241,91,138,17,277,30,40,130,184,51,262,99,297,11,171,288,220,22]","5","arrowright","true","19"
