"view_history","rt","trial_type","trial_index","time_elapsed","internal_node_id","response","nodesOrdering","cliqueSize","correctResponse","presentationNumber","correctnessOfResponse"
"[{""page_index"":0,""viewing_time"":1255}]","1255","instructions","0","1255","0.0-0.0","","","","","",""
"","492","canvas-keyboard-response","1","3430","0.0-1.0-0.0-0.0"," ","[279,172,38,151,19,142,252,131,4,208,236,57,56,242,286,197,83,134,163,214,137,34,170,256,42,149,126,114,104,68,249,80,93,100,215,95,123,271,59,2,233,202,30,62,9,11,295,205,188,169,196,183,272,240,70,284,194,110,186,90,291,296,109,32,260,87,20,53,224,274,96,231,6,223,173,268,98,162,177,244,27,143,31,187,200,76,195,144,99,86,67,288,269,277,167,241,289,82,49,267,111,13,237,50,54,210,46,254,293,198,232,222,219,220,51,108,165,55,85,265,281,117,201,185,247,266,48,287,209,189,248,135,17,146,216,78,119,97,211,21,193,206,94,132,212,160,102,243,154,64,229,285,297,273,192,290,158,40,66,136,141,153,264,255,180,120,171,176,282,36,35,245,69,125,164,88,52,128,261,7,101,182,37,253,276,41,175,12,138,113,168,14,107,122,234,250,10,166,159,71,283,81,213,75,190,106,218,29,228,181,33,130,44,156,298,79,184,8,112,148,152,174,22,147,129,150,121,58,263,275,60,139,262,61,179,63,45,124,73,230,26,0,18,15,72,191,246,43,299,251,116,127,3,28,270,217,259,157,278,145,39,238,77,23,203,16,257,140,115,280,178,89,24,103,118,65,207,239,227,133,25,1,5,155,294,84,292,204,47,199,91,92,235,105,161,74,258,225,221,226]","100","arrowleft","0",""
"","38","canvas-keyboard-response","2","5169","0.0-1.1-0.1-0.1"," ","[153,169,235,215,262,65,69,163,271,176,63,260,274,206,14,28,12,13,258,231,111,254,1,148,278,8,150,272,97,199,294,292,70,31,154,145,45,57,183,46,146,191,282,257,96,211,10,102,266,116,29,120,240,130,134,18,127,11,290,279,0,186,66,140,41,273,20,132,138,38,224,239,114,200,252,283,24,98,44,210,188,158,86,112,171,123,208,90,37,267,77,247,181,197,221,246,159,152,178,295,101,141,270,73,243,227,253,107,268,213,225,193,280,205,248,117,34,40,43,61,119,162,297,5,58,92,110,33,9,242,93,245,105,131,32,174,291,288,275,84,167,133,284,214,50,160,212,42,263,16,238,79,194,277,22,217,293,192,175,3,25,202,228,23,67,118,261,226,155,222,55,177,142,82,139,103,264,203,95,125,168,220,173,2,236,182,122,187,298,48,184,265,234,241,4,230,219,27,281,72,81,161,36,121,108,85,71,147,78,157,165,249,39,250,143,196,216,75,60,94,21,286,62,172,17,91,198,207,256,179,289,204,115,49,237,53,296,106,56,276,89,76,109,232,100,26,30,223,87,7,233,74,47,128,244,136,88,80,135,185,144,190,164,15,51,195,287,209,285,269,151,129,68,19,189,35,99,104,259,251,255,299,124,6,52,166,113,180,229,137,170,54,126,156,59,83,149,201,218,64]","100","arrowleft","0",""
"","608","canvas-keyboard-response","3","7445","0.0-1.2-0.2-0.2","arrowleft","[19,232,151,199,97,200,30,38,119,181,3,248,89,257,137,178,126,41,10,43,210,134,99,170,295,54,256,187,141,86,143,49,288,51,204,122,253,6,36,138,32,271,60,184,145,270,193,242,260,20,285,188,94,275,182,81,37,171,149,76,5,279,66,142,298,247,24,208,286,265,152,261,166,263,61,22,48,87,224,264,114,250,174,189,146,116,63,112,228,221,74,299,289,243,0,223,90,239,50,91,160,46,291,297,132,177,161,4,207,212,35,267,225,117,191,100,153,58,131,220,102,16,57,56,172,162,108,198,216,266,226,9,65,15,25,233,235,69,7,280,11,2,103,185,203,278,296,144,140,218,70,129,173,62,147,154,281,67,293,92,201,222,167,124,45,183,214,111,109,276,121,273,26,52,157,206,39,72,282,197,31,252,209,40,14,18,113,219,53,12,284,180,202,78,118,96,159,17,106,179,34,105,292,23,42,110,168,139,128,156,150,107,93,1,8,176,79,75,120,28,101,77,215,55,130,258,238,125,80,95,13,213,237,64,148,272,245,287,21,249,277,211,230,123,194,44,155,169,115,29,227,254,190,73,127,98,186,85,274,163,240,136,196,294,241,104,290,82,236,165,231,59,259,175,262,68,192,229,84,205,283,133,244,27,88,251,164,269,255,268,71,47,246,135,195,158,217,234,83,33]","100","arrowleft","0","true"
"","869","canvas-keyboard-response","4","9974","0.0-2.0-0.0-0.0","arrowleft","[141,46,71,190,238,167,147,116,163,265,90,45,229,12,231,233,87,198,254,97,148,42,6,126,284,117,143,142,296,230,55,56,34,187,32,93,110,219,24,240,139,215,150,22,94,262,65,10,177,39,274,227,36,276,127,200,196,245,106,128,44,189,222,260,35,73,181,62,43,138,144,170,283,67,101,212,220,103,137,156,129,235,193,140,77,85,251,267,26,8,288,17,161,175,133,162,49,5,104,232,258,286,51,149,61,92,257,221,261,195,285,68,146,76,243,105,14,28,9,3,59,4,228,20,159,33,206,249,268,289,19,202,277,294,11,153,50,0,272,1,266,124,118,234,134,83,121,125,264,70,188,185,31,184,160,205,252,179,259,194,173,256,226,47,186,237,25,89,30,131,100,96,154,204,109,178,80,102,69,172,63,223,2,209,81,297,169,224,293,292,74,236,166,275,192,239,210,122,191,211,155,79,88,40,113,99,253,16,120,299,41,27,95,123,207,246,37,282,244,132,279,269,250,64,214,7,23,48,248,84,86,15,60,197,281,115,171,263,174,165,136,152,21,108,151,157,201,255,273,217,135,112,278,111,78,54,82,271,291,29,199,107,13,53,164,218,287,98,66,203,213,280,168,216,58,72,91,38,298,176,18,75,52,145,247,182,290,130,295,114,183,119,241,180,158,57,242,208,225,270]","95","arrowleft","1","true"
"","875","canvas-keyboard-response","5","12534","0.0-3.0-0.0-0.0","arrowleft","[194,169,244,25,291,11,34,211,208,224,266,167,245,222,55,183,147,181,40,126,135,12,252,170,223,153,265,3,225,227,214,130,124,97,49,102,37,1,41,131,233,120,61,62,176,239,31,263,195,128,132,152,154,261,180,171,30,58,251,175,178,287,20,292,160,282,71,59,268,114,179,226,47,192,238,220,104,157,108,281,112,140,125,177,230,151,186,172,243,103,24,149,198,200,215,99,44,187,275,276,106,74,235,216,32,23,139,33,272,166,38,185,253,232,141,21,10,148,258,16,93,293,92,70,143,228,242,6,54,294,81,105,283,288,69,138,219,48,52,15,277,249,45,190,218,206,156,144,14,269,191,174,77,63,150,88,19,46,115,159,161,65,27,29,98,5,146,78,257,236,247,273,163,193,13,101,96,121,264,182,197,89,173,75,221,22,118,72,286,267,248,168,73,90,119,274,296,60,94,164,17,205,85,136,50,158,262,80,201,129,2,76,68,155,279,290,234,298,39,229,64,116,184,255,0,209,145,210,87,259,4,202,111,133,189,196,8,110,127,26,297,204,123,142,280,165,240,270,284,203,67,57,162,278,7,237,83,199,51,134,100,260,113,95,36,246,295,117,217,35,213,18,79,82,42,241,107,66,91,271,231,207,43,188,299,285,122,56,86,254,28,109,212,256,53,289,9,250,137,84]","90","arrowleft","2","true"
"","1068","canvas-keyboard-response","6","15286","0.0-4.0-0.0-0.0","arrowleft","[171,163,292,99,74,298,136,162,81,60,97,294,67,119,113,68,42,238,215,127,50,193,83,103,209,191,23,125,194,232,116,259,140,274,295,225,88,146,257,205,133,239,220,94,189,211,203,56,201,92,126,192,296,165,14,200,137,58,250,164,157,69,249,76,57,142,117,276,178,29,279,252,154,226,45,51,120,17,187,134,208,152,267,169,270,219,221,11,230,174,262,91,263,107,3,114,54,118,62,261,222,283,6,80,16,179,4,21,218,20,291,129,288,102,78,176,285,248,278,184,5,204,258,37,236,166,256,275,143,254,63,89,264,183,104,161,241,53,260,55,0,299,49,228,7,173,172,284,277,13,87,148,235,147,95,101,280,15,269,71,229,38,290,297,206,34,36,46,82,72,160,212,180,86,106,286,24,231,182,185,33,121,138,85,245,52,223,130,150,65,210,237,43,271,282,131,22,10,268,246,77,59,44,9,181,272,216,213,1,70,159,2,265,61,32,281,247,132,96,84,90,112,158,207,153,190,111,93,28,108,293,144,175,27,167,8,198,141,123,289,12,240,170,122,156,19,224,79,234,255,233,196,253,124,18,243,145,98,242,64,73,217,30,199,135,41,168,48,115,47,197,202,66,149,273,139,244,186,287,188,105,40,155,251,151,39,177,25,214,227,109,35,266,100,110,26,128,75,31,195]","85","arrowleft","3","true"
"","971","canvas-keyboard-response","7","17958","0.0-5.0-0.0-0.0","arrowright","[142,258,158,105,1,272,108,273,84,86,135,218,5,127,146,281,252,66,48,47,199,177,21,203,251,53,40,28,74,215,156,185,286,149,68,232,165,12,31,172,57,150,121,225,259,85,238,6,3,69,166,210,160,293,222,33,233,44,188,107,186,191,197,120,220,141,55,42,119,9,247,189,173,151,124,25,38,228,35,73,63,116,236,296,223,196,234,106,175,4,181,24,60,122,211,90,118,80,298,41,129,29,170,75,52,194,103,250,178,264,253,162,30,155,37,270,92,125,19,27,183,14,202,249,140,263,117,192,99,213,200,104,285,143,182,297,126,295,82,148,190,276,235,164,39,187,291,248,101,10,242,64,65,7,45,43,290,152,287,212,169,226,277,71,239,244,204,49,15,50,114,138,267,294,299,174,207,61,79,100,147,91,221,257,271,32,280,171,51,81,22,94,167,89,180,34,282,58,176,134,26,260,88,279,46,278,18,13,217,144,269,265,245,23,288,266,284,110,206,20,113,133,56,95,256,62,36,136,229,205,0,96,241,292,102,193,70,130,98,131,219,83,159,137,145,115,255,11,246,179,123,112,201,227,168,161,289,261,230,243,157,16,240,67,109,132,59,8,154,283,195,184,262,153,237,231,76,128,93,54,2,97,198,214,111,208,275,72,274,77,17,224,216,87,268,254,78,209,163,139]","80","arrowright","4","true"
"","783","canvas-keyboard-response","8","20422","0.0-6.0-0.0-0.0","arrowright","[136,233,98,215,172,16,219,141,40,187,165,94,179,131,58,56,43,286,17,246,208,68,41,87,249,168,1,263,285,261,27,23,46,218,191,152,108,79,102,183,240,293,245,26,237,235,99,3,80,110,268,142,132,55,253,64,155,171,86,174,97,9,82,291,19,190,121,115,288,189,143,294,274,88,93,8,250,239,238,73,202,175,28,289,185,118,167,277,148,196,205,149,262,123,282,180,150,207,170,5,74,96,226,206,298,295,30,6,287,59,230,2,84,117,116,266,60,52,137,101,153,297,133,111,125,119,49,42,290,254,203,144,194,256,67,11,33,212,92,145,225,273,38,281,4,197,15,163,271,166,242,47,252,112,258,128,83,213,154,241,244,63,264,151,106,12,48,156,13,78,195,70,100,120,193,270,109,216,162,178,296,105,72,36,181,265,255,204,272,188,139,267,257,248,221,113,231,25,260,134,160,122,159,18,299,236,251,65,220,186,147,54,14,103,51,140,95,164,161,199,214,280,200,130,176,75,22,177,91,259,7,61,10,127,232,182,53,71,210,278,173,34,107,62,228,57,138,81,146,198,69,247,31,227,24,229,275,39,223,158,124,184,89,45,44,224,126,276,35,209,284,66,292,32,77,114,234,157,0,169,85,269,20,129,29,50,211,201,192,90,104,21,243,217,37,76,279,222,283,135]","75","arrowright","5","true"
"","847","canvas-keyboard-response","9","22950","0.0-7.0-0.0-0.0","arrowright","[132,256,64,179,23,199,59,208,196,189,21,12,114,101,157,222,5,258,217,110,249,184,155,53,86,9,92,226,151,42,210,36,48,276,190,192,277,270,4,159,244,39,7,3,104,230,292,251,14,74,126,237,140,68,163,268,197,224,169,263,8,229,54,218,149,259,145,194,17,158,134,283,41,81,6,220,150,129,1,94,115,201,51,90,191,136,275,2,255,279,236,133,166,285,71,19,117,290,165,130,34,147,128,173,231,164,43,82,108,176,63,291,227,135,299,35,241,77,209,188,213,69,280,181,33,193,180,162,232,160,100,264,52,223,257,240,183,202,225,72,170,142,79,293,284,47,243,211,84,271,112,37,235,0,247,207,265,106,146,245,20,118,10,85,238,274,29,144,105,153,253,287,113,119,182,22,57,50,262,203,125,239,13,198,32,242,83,30,111,250,49,97,107,187,96,89,248,267,185,261,127,246,200,195,65,18,38,219,73,67,25,152,215,131,141,221,295,272,121,148,31,116,286,137,122,298,143,99,75,175,28,70,156,138,80,88,167,45,269,266,178,296,234,58,252,93,171,294,254,16,206,282,123,61,161,62,174,91,288,44,109,46,66,103,120,216,98,278,78,40,172,281,289,212,177,297,204,15,228,56,87,260,55,11,60,102,214,233,154,27,76,139,26,205,273,168,95,124,186,24]","70","arrowright","6","true"
"","783","canvas-keyboard-response","10","25414","0.0-8.0-0.0-0.0","arrowleft","[170,82,141,140,24,3,148,63,160,179,249,32,85,106,111,234,177,79,240,150,128,74,29,57,178,119,41,81,68,114,195,4,49,227,290,279,107,275,10,110,244,166,21,269,120,51,200,256,176,167,165,274,210,197,276,11,205,64,104,136,235,16,263,90,247,60,31,44,53,96,233,222,20,9,185,255,188,47,169,40,192,12,206,17,78,183,42,196,163,84,254,76,133,159,138,144,121,173,7,246,45,71,261,155,198,102,123,204,186,270,208,131,1,94,175,242,134,238,298,87,14,253,27,70,55,39,264,229,284,25,125,271,260,230,277,203,293,137,212,236,108,237,281,105,62,202,43,245,101,295,157,28,132,266,18,268,103,257,287,285,97,272,194,187,50,291,209,143,153,172,273,129,231,116,124,250,147,217,158,292,149,34,130,142,56,113,243,109,297,248,228,201,126,168,66,15,220,5,211,61,88,19,225,72,91,296,181,162,13,122,6,83,54,98,184,65,226,218,8,67,69,215,219,294,164,221,258,52,259,232,213,252,161,59,92,151,139,283,174,280,156,80,100,38,224,214,117,127,115,86,190,282,30,191,152,23,0,99,77,289,93,58,223,288,251,89,207,35,286,33,180,267,37,239,189,73,26,36,182,216,199,22,135,262,299,145,112,278,118,46,171,193,48,75,265,95,146,2,154,241]","65","arrowleft","7","true"
"","743","canvas-keyboard-response","11","27829","0.0-9.0-0.0-0.0","arrowright","[244,121,292,271,161,247,54,102,65,243,246,63,232,59,154,272,175,235,190,22,180,267,3,216,128,239,166,115,281,159,31,14,212,131,60,37,139,30,84,262,124,82,179,197,56,75,103,260,209,71,111,4,52,168,265,278,215,233,17,106,125,295,107,61,248,104,40,66,132,33,126,293,218,283,92,296,41,211,129,6,78,204,64,43,42,53,51,16,10,280,241,94,257,228,109,231,164,67,224,1,181,200,26,289,254,143,230,269,110,238,297,24,195,225,20,191,170,39,202,210,117,100,221,155,149,258,253,136,183,193,80,150,140,55,192,189,112,134,96,255,7,89,32,81,146,101,8,119,226,172,69,145,28,114,38,2,141,217,74,76,237,167,47,284,206,188,288,184,222,261,207,25,290,208,79,48,9,148,50,205,62,169,36,99,242,147,142,171,91,95,5,90,298,201,250,270,97,77,127,158,275,277,58,0,185,178,85,21,220,35,182,45,163,133,276,266,122,160,291,256,282,285,137,144,229,68,93,177,15,135,234,214,138,70,219,88,236,162,12,86,98,249,83,274,173,223,176,299,72,19,11,194,118,73,46,87,57,113,279,268,152,286,29,44,157,108,273,263,245,116,294,186,213,251,187,120,130,153,123,196,199,252,264,13,227,151,156,240,49,105,27,198,259,174,165,23,18,203,287,34]","60","arrowright","8","true"
"","777","canvas-keyboard-response","12","30278","0.0-10.0-0.0-0.0"," ","[190,194,255,37,128,104,232,230,209,298,257,158,31,244,75,250,162,81,90,199,124,33,239,204,32,120,106,287,222,11,92,260,226,262,6,205,245,40,89,24,251,295,23,218,83,74,39,256,125,274,278,130,281,121,291,17,185,82,220,285,243,123,201,292,112,269,113,149,206,210,79,119,279,254,28,107,275,22,73,45,26,72,299,105,48,98,266,271,188,49,97,132,76,270,247,58,43,56,20,221,53,27,202,91,41,240,30,127,64,238,67,143,172,195,55,99,126,165,103,0,282,223,186,170,246,207,264,135,96,211,59,175,147,258,13,154,108,138,38,208,160,157,178,54,286,233,169,227,146,284,2,86,111,294,225,166,51,93,109,36,193,273,50,87,189,200,100,161,153,228,80,150,3,136,71,296,34,241,84,288,122,267,1,25,133,62,101,115,65,197,168,29,69,110,66,214,248,171,85,283,180,191,236,297,173,253,151,78,144,290,289,102,163,114,145,95,16,231,52,217,156,4,224,167,118,265,259,18,19,272,152,21,94,139,88,277,57,213,242,219,141,203,174,12,159,5,252,216,179,63,181,46,192,131,234,70,61,14,77,212,140,15,10,187,137,44,129,47,183,35,276,148,68,249,268,229,134,177,237,117,196,164,42,261,235,182,293,8,176,280,184,116,215,9,198,7,142,60,155,263]","55","arrowright","9",""
"","37","canvas-keyboard-response","13","32013","0.0-10.1-0.1-0.1","arrowright","[218,3,212,86,59,102,131,173,184,249,186,188,104,262,228,278,54,8,255,28,49,17,77,5,231,133,299,118,128,238,220,194,292,261,241,117,172,290,58,265,167,160,176,283,162,199,143,182,44,198,124,15,14,10,29,258,282,201,206,55,250,239,204,79,25,195,208,109,112,189,196,149,192,90,147,263,93,97,6,80,60,197,295,103,207,13,24,264,243,18,229,70,108,115,161,216,87,213,244,100,153,114,125,253,96,127,190,164,159,177,75,296,168,42,63,210,119,1,235,16,69,76,268,145,185,139,281,236,171,273,20,130,113,72,27,181,74,175,269,98,259,146,62,141,256,178,274,4,158,166,64,67,154,9,205,107,169,271,151,277,170,2,148,52,267,36,0,81,137,245,275,260,57,50,247,227,35,89,11,134,157,286,101,298,254,47,129,179,234,88,180,26,53,111,95,38,233,163,94,251,191,21,46,78,122,41,156,187,32,85,48,120,226,200,56,121,123,289,40,242,279,165,150,252,276,225,99,155,110,12,232,116,246,142,214,73,193,7,215,266,105,221,33,71,297,68,144,34,65,132,45,138,22,203,51,230,43,223,39,293,152,174,91,272,19,237,183,219,83,37,92,285,140,287,257,135,224,291,30,82,126,84,31,66,240,248,61,211,23,202,217,136,294,106,209,280,270,288,284,222]","55","arrowright","9","true"
"","3060","canvas-keyboard-response","14","36742","0.0-11.0-0.0-0.0","arrowright","[167,91,36,279,275,25,212,278,247,99,132,3,136,215,147,10,27,135,142,39,62,198,233,145,1,290,141,210,244,224,283,234,54,111,202,160,52,289,49,105,194,294,110,159,220,291,163,8,218,17,150,217,181,92,232,118,93,108,255,40,207,216,281,230,122,272,67,268,102,209,0,172,137,146,63,231,131,78,173,116,56,86,115,195,201,29,20,221,196,186,90,188,162,130,15,76,164,72,227,192,263,293,228,175,284,193,46,45,109,249,11,144,129,60,242,96,246,262,51,213,2,200,87,98,119,69,236,12,250,245,13,282,222,127,73,89,165,158,225,117,138,208,155,295,47,82,71,183,157,83,124,43,199,106,276,34,267,126,4,238,288,35,14,70,134,299,100,139,177,259,237,269,161,32,21,190,152,112,273,156,95,270,37,169,168,180,61,271,140,149,7,23,42,50,296,197,206,53,58,154,179,59,240,185,214,22,254,235,170,248,252,174,285,133,298,121,153,101,239,80,120,143,274,184,66,171,166,261,113,203,219,85,38,287,265,48,9,187,97,257,19,211,280,28,24,297,256,114,223,65,182,16,104,253,107,94,30,75,205,26,64,88,44,81,229,123,79,243,266,241,292,84,191,31,33,258,57,251,176,125,41,128,189,103,264,77,277,55,18,178,286,6,5,151,260,204,226,68,74,148]","50","arrowright","10","true"
"","1815","canvas-keyboard-response","15","40246","0.0-12.0-0.0-0.0","arrowright","[267,176,10,33,113,199,18,76,88,274,259,203,247,201,17,187,266,55,218,129,147,158,194,248,110,62,269,74,132,123,109,86,137,236,7,279,90,101,30,240,82,57,164,237,54,206,8,41,184,91,9,170,3,244,6,141,4,181,189,98,273,250,202,298,138,111,72,2,16,232,213,262,135,186,53,227,210,214,249,283,215,5,20,219,70,160,84,60,51,26,108,264,188,179,190,281,282,94,196,224,252,174,233,180,107,171,21,45,36,198,120,209,150,49,157,211,204,165,50,208,294,182,89,225,38,272,127,271,114,292,0,12,155,46,1,175,173,87,276,255,133,163,251,183,92,228,167,161,231,59,275,295,130,285,193,42,149,19,66,100,58,221,195,77,145,116,29,260,245,24,216,166,95,121,93,103,75,140,277,253,287,117,131,115,185,102,154,25,78,61,205,118,146,212,106,119,124,48,97,226,270,79,105,286,22,69,290,35,299,142,40,191,207,258,172,242,43,125,152,238,151,200,139,44,28,85,68,192,234,14,177,73,80,122,265,256,134,263,246,56,257,222,34,96,261,217,65,148,32,230,136,280,81,104,67,128,37,13,71,23,288,291,162,153,112,169,39,126,144,235,47,278,289,243,143,241,293,27,220,178,223,197,229,156,31,15,284,99,11,52,254,168,297,239,63,83,296,268,159,64]","45","arrowright","11","true"
"","2054","canvas-keyboard-response","16","43990","0.0-13.0-0.0-0.0","arrowright","[273,196,69,19,247,288,11,177,84,40,228,146,186,239,102,190,284,181,60,265,164,43,224,290,200,271,0,74,212,13,197,223,245,59,202,121,137,62,113,27,15,17,70,235,213,208,99,267,14,180,231,142,54,194,3,116,255,65,123,264,263,125,71,90,139,29,101,148,249,270,76,45,8,108,268,128,159,131,199,30,280,7,2,136,188,182,42,242,110,293,287,107,28,50,61,18,55,48,85,165,259,120,210,179,154,9,143,156,229,5,144,257,285,211,115,20,278,254,72,161,91,250,171,151,56,93,21,220,89,283,214,63,226,170,216,94,206,166,203,114,106,204,31,83,126,244,36,248,67,145,75,238,25,39,292,198,86,207,152,289,187,46,130,22,132,111,124,240,281,241,192,274,296,64,201,297,118,141,122,158,79,230,195,105,232,53,47,277,157,80,251,282,294,149,189,12,236,225,34,104,246,269,81,295,129,163,286,174,6,138,169,38,298,275,32,51,87,272,127,299,279,167,1,266,178,233,26,103,41,88,97,162,160,262,253,23,10,205,4,215,219,73,191,49,175,221,147,16,291,33,222,260,150,227,173,258,140,58,57,95,185,117,24,35,153,184,133,234,256,109,98,237,217,183,37,112,82,243,176,52,68,77,168,92,134,172,193,218,66,100,209,96,44,119,135,78,261,155,252,276]","40","arrowleft","12","false"
"","1465","canvas-keyboard-response","17","47142","0.0-14.0-0.0-0.0"," ","[247,272,131,253,214,159,242,16,179,19,234,235,26,64,20,284,102,153,13,89,268,237,58,1,137,167,71,147,166,6,103,191,155,59,78,222,133,14,130,126,120,181,82,70,114,117,145,177,144,44,104,143,279,278,276,30,226,88,107,29,138,50,263,230,211,261,99,285,60,200,171,196,286,17,158,27,106,142,282,217,141,79,207,40,208,109,195,11,164,294,38,262,57,188,257,35,170,236,213,199,204,95,72,2,265,212,273,281,296,149,4,205,32,241,297,129,277,132,134,210,85,244,271,218,65,8,156,220,240,74,123,163,165,100,298,221,254,174,119,173,289,39,182,287,83,256,183,243,75,63,178,290,216,160,239,42,203,154,169,223,61,54,209,192,187,270,51,31,128,45,225,184,76,252,249,162,105,292,299,157,25,124,135,193,62,41,180,80,55,267,111,175,245,150,24,86,266,219,53,215,66,118,18,269,194,238,202,108,136,93,255,97,161,91,22,43,90,259,291,227,81,7,73,148,186,176,258,190,151,246,67,116,250,77,69,87,5,56,264,168,201,121,288,47,98,251,280,49,185,92,125,0,152,37,233,275,127,96,28,146,48,172,232,34,33,140,9,295,139,283,197,10,110,94,113,228,229,248,115,23,231,224,3,12,46,15,198,293,68,52,189,260,112,206,101,21,84,36,122,274]","35","arrowright","13",""
"","1122","canvas-keyboard-response","18","49942","0.0-14.1-0.1-0.1","arrowleft","[286,160,173,265,169,42,263,284,262,57,124,68,149,64,256,178,219,269,11,205,246,97,115,32,198,29,191,217,167,40,8,5,243,75,114,130,212,152,126,200,195,283,297,31,91,72,234,0,136,146,58,119,80,128,147,228,46,214,239,194,207,192,96,154,236,196,108,37,231,172,38,280,33,28,296,221,26,174,139,20,293,89,113,232,201,84,14,216,249,166,18,210,188,47,163,278,250,145,81,258,299,244,277,65,70,48,275,3,197,116,274,110,23,133,19,54,242,279,273,261,206,1,264,83,164,285,98,55,94,162,224,238,171,22,230,73,270,43,260,117,151,82,208,87,218,204,161,10,247,295,148,184,7,88,211,107,2,185,24,100,252,255,90,131,233,143,35,12,79,159,111,177,135,186,141,16,229,50,112,292,105,101,60,267,176,281,199,227,134,168,92,156,235,4,183,93,39,226,180,187,63,51,95,138,102,181,276,6,21,271,241,245,69,215,62,153,291,9,77,104,15,190,129,36,225,59,157,248,27,123,142,122,53,103,189,253,259,223,120,56,240,45,109,266,288,74,85,30,125,179,144,13,222,49,182,44,61,137,289,86,290,175,17,150,272,209,132,121,67,237,220,193,78,203,52,170,99,127,282,25,155,66,118,140,76,287,213,202,71,298,106,158,254,251,41,257,268,34,165,294]","35","arrowright","13","false"
"","1010","canvas-keyboard-response","19","52614","0.0-15.0-0.0-0.0","arrowright","[55,77,284,243,195,275,262,99,182,225,289,128,162,68,287,69,29,171,7,43,172,15,52,37,241,271,180,226,72,114,249,279,84,13,89,254,202,63,198,282,6,94,298,169,191,62,111,251,260,184,44,174,101,97,12,166,137,28,190,164,285,160,229,187,220,186,270,156,4,66,54,0,203,265,48,144,294,42,263,234,165,181,73,105,235,185,264,196,219,17,64,38,175,140,34,218,246,170,157,91,14,20,161,11,245,288,291,193,46,98,248,256,95,192,67,244,45,158,222,120,214,123,152,224,290,189,108,36,147,18,32,2,118,268,247,297,155,124,281,201,136,82,286,283,258,228,199,272,107,215,237,115,76,10,146,106,49,96,39,261,296,299,267,100,78,22,138,135,116,127,255,40,19,56,83,259,151,154,122,227,188,88,103,266,125,110,269,5,59,112,102,16,179,163,200,209,177,58,90,223,35,231,134,75,27,236,233,277,3,87,61,211,139,50,143,80,292,126,23,238,273,93,70,121,293,21,150,194,8,197,85,232,41,142,204,221,274,239,278,92,148,206,51,53,210,24,208,159,60,149,132,295,25,131,9,178,31,65,217,168,250,57,242,129,230,205,173,216,81,141,130,33,276,47,74,212,30,113,176,253,86,117,167,240,153,71,79,1,207,26,183,213,257,109,252,145,280,104,119,133]","30","arrowleft","14","false"
"","1100","canvas-keyboard-response","20","55397","0.0-16.0-0.0-0.0","arrowright","[222,243,65,216,72,272,88,195,54,51,166,250,162,255,274,265,187,193,99,157,239,177,153,289,73,252,176,118,135,48,69,191,170,55,260,123,242,258,204,61,8,167,293,257,120,134,277,163,27,287,75,262,224,291,102,130,7,273,146,29,96,9,276,231,10,139,295,24,256,178,144,234,62,57,228,28,180,299,152,13,19,209,70,283,44,38,236,217,14,129,80,150,197,290,78,190,213,131,194,267,218,39,159,26,42,184,40,165,64,112,16,186,46,114,94,141,6,207,106,251,104,117,89,100,98,34,147,188,137,280,11,85,105,52,261,119,148,18,17,278,87,31,174,79,201,229,108,200,169,33,244,142,113,110,281,71,171,58,81,126,90,67,128,269,41,254,221,103,248,202,30,264,160,210,175,59,158,268,82,107,86,116,294,156,284,122,50,179,49,211,220,125,161,22,109,91,233,238,76,199,266,198,140,206,124,237,270,63,259,56,214,253,92,282,95,215,32,245,219,241,136,275,20,60,205,226,168,240,68,297,292,66,225,181,45,249,43,173,83,285,74,271,235,111,145,4,208,133,164,286,12,185,127,143,132,296,298,115,138,230,93,196,232,21,5,25,0,36,1,23,2,35,192,263,101,279,121,77,154,247,97,47,189,53,223,172,246,151,183,15,149,227,3,155,203,182,288,37,84,212]","25","arrowright","15","true"
"","3436","canvas-keyboard-response","21","60466","0.0-17.0-0.0-0.0","arrowright","[60,183,20,257,114,41,210,254,281,258,59,205,70,145,164,143,65,82,13,188,102,284,122,146,98,91,6,7,19,295,74,243,42,220,43,297,262,95,218,71,67,25,162,274,271,75,233,125,0,280,33,198,118,184,215,232,53,160,21,208,130,1,121,108,239,99,3,224,115,37,156,22,246,196,169,200,23,83,204,88,235,298,17,181,248,87,97,223,242,31,282,64,32,253,47,140,178,131,179,279,2,50,227,174,195,228,116,219,157,199,141,252,203,236,40,211,149,101,86,273,107,290,229,112,81,217,120,45,10,278,194,44,167,106,54,148,72,221,150,144,255,173,225,39,9,244,134,240,153,57,4,100,92,176,269,68,147,296,80,209,190,187,8,126,18,52,151,197,201,245,132,175,49,29,206,180,15,182,159,161,163,89,230,38,127,119,26,24,77,193,293,138,177,117,214,16,264,168,172,231,288,11,123,270,137,155,202,292,277,12,110,185,28,152,191,51,79,272,287,276,213,261,260,189,36,103,222,256,5,299,104,250,283,207,268,69,192,237,266,93,136,285,165,94,109,62,216,135,133,238,171,90,14,294,55,27,105,35,247,291,289,234,263,142,275,48,259,113,186,249,139,226,241,34,170,84,124,251,154,30,76,56,78,66,128,61,265,129,286,73,63,46,267,96,58,111,158,85,166,212]","20","arrowleft","16","false"
"","1492","canvas-keyboard-response","22","63633","0.0-18.0-0.0-0.0"," ","[19,229,240,41,261,32,134,253,183,86,118,195,287,298,11,165,281,49,135,182,273,215,80,111,0,13,197,150,141,90,206,146,280,209,171,246,22,65,193,31,92,151,219,45,216,200,218,173,62,185,145,59,258,3,242,91,10,184,201,226,160,127,147,283,133,125,102,268,131,177,257,230,81,106,222,16,234,60,271,295,143,241,217,55,179,210,221,175,262,227,14,93,69,207,213,285,176,228,251,178,138,180,66,121,203,137,152,187,1,260,168,199,43,89,9,2,154,109,198,34,122,119,36,85,299,51,291,4,76,208,46,270,174,68,167,264,212,98,252,186,73,26,88,20,44,97,282,103,162,99,8,296,38,244,189,225,72,83,202,5,33,245,233,224,37,158,255,284,250,107,35,166,40,115,64,289,204,170,52,47,29,130,128,132,149,39,243,42,126,249,63,274,25,292,144,96,71,148,279,163,256,101,276,157,117,275,136,54,266,6,211,236,7,70,27,84,94,50,15,235,223,48,254,95,294,156,288,30,188,290,82,214,286,196,169,205,159,78,108,247,265,220,18,164,161,238,259,231,155,293,140,24,124,114,172,269,21,129,263,153,110,28,74,239,58,232,61,194,113,192,142,190,248,116,272,67,123,120,75,56,23,267,191,181,100,139,12,105,112,87,79,104,77,277,17,53,237,297,278,57]","15","arrowleft","17",""
"","503","canvas-keyboard-response","23","65793","0.0-18.1-0.1-0.1","arrowleft","[35,150,261,193,149,105,169,285,242,183,284,231,162,127,88,72,251,266,145,212,296,86,188,112,131,87,17,219,137,163,204,170,6,222,80,39,120,54,33,143,133,279,121,32,194,75,11,84,107,101,240,108,287,273,189,173,262,90,96,0,295,257,291,221,215,100,196,63,298,214,113,114,146,166,152,178,31,93,98,172,117,20,40,203,66,154,38,199,1,27,289,128,116,67,4,187,13,25,16,294,185,151,148,226,260,235,7,292,30,182,245,115,175,5,269,274,293,272,77,102,132,283,207,130,140,259,52,118,106,184,28,85,286,192,248,157,60,111,122,97,299,190,135,250,91,37,210,171,280,12,110,14,42,243,246,61,197,104,156,141,65,92,228,129,206,2,23,49,232,200,265,15,205,252,43,191,161,142,103,51,78,99,109,26,209,234,50,165,239,258,225,36,81,29,282,290,62,271,18,179,186,155,276,134,216,89,211,174,46,139,247,233,68,181,136,160,177,254,267,176,158,147,82,76,123,9,44,201,126,208,164,288,59,24,256,69,56,220,229,125,3,41,124,236,263,168,57,278,249,198,213,34,230,227,153,270,95,255,79,218,281,58,48,224,202,94,21,22,71,223,144,238,53,55,8,119,64,195,277,244,159,241,253,45,83,297,138,268,264,70,237,167,19,73,47,74,217,275,10,180]","15","arrowleft","17","true"
"","1834","canvas-keyboard-response","24","69314","0.0-19.0-0.0-0.0","arrowleft","[269,177,294,186,242,232,295,260,243,236,17,90,49,127,240,257,139,89,57,200,273,292,56,10,198,153,114,52,270,108,166,271,261,26,81,199,46,47,11,54,262,115,1,268,22,105,235,0,62,224,94,172,181,25,125,244,237,15,221,48,111,170,208,164,158,231,277,137,31,41,265,259,248,73,51,219,281,68,169,117,196,282,28,147,36,121,228,128,70,222,86,2,225,123,197,195,12,87,103,264,203,136,76,3,285,239,42,130,61,13,212,171,155,194,187,122,140,83,233,185,278,79,7,50,98,109,256,245,188,272,267,144,246,102,209,38,284,207,34,229,72,129,150,145,291,146,227,66,45,135,286,97,179,9,249,143,100,206,283,162,238,216,163,218,24,107,168,78,247,82,55,178,131,156,126,174,85,253,190,93,251,141,133,69,263,234,8,104,30,167,59,193,118,37,160,275,74,202,276,64,266,92,217,106,58,205,6,91,138,99,96,250,154,33,134,149,148,214,80,241,287,254,184,211,27,173,189,183,157,213,226,19,132,53,210,220,201,192,215,258,63,119,124,67,290,14,65,165,88,255,32,176,116,223,20,21,204,84,71,4,161,180,274,252,29,191,39,152,95,18,289,44,159,279,5,288,293,77,297,175,23,299,120,296,75,182,110,142,230,40,280,35,16,60,113,298,151,43,112,101]","10","arrowleft","18","true"
"","2070","canvas-keyboard-response","25","73074","0.0-20.0-0.0-0.0","arrowleft","[258,43,119,204,57,285,113,280,181,108,92,30,263,98,245,207,266,114,262,256,50,151,135,163,240,90,170,99,62,120,211,286,41,282,289,177,38,86,137,60,267,138,160,225,4,142,238,184,237,133,80,101,134,191,152,85,277,216,52,175,61,53,187,115,93,195,94,220,56,12,253,209,247,202,249,158,228,261,66,11,18,196,265,250,264,255,22,13,72,146,154,201,162,173,294,89,47,295,9,15,27,298,257,20,230,42,16,292,161,29,274,224,145,0,88,132,14,198,76,127,19,275,78,215,74,28,125,226,222,136,49,197,165,3,148,171,70,83,31,153,185,269,84,44,23,232,169,188,51,69,124,248,227,278,199,73,46,26,221,168,231,25,130,21,251,164,63,8,24,236,10,128,252,143,111,194,149,87,157,48,179,271,79,246,219,64,82,214,172,234,2,155,36,7,131,192,242,77,40,117,212,235,116,166,210,32,213,139,272,54,122,110,100,273,37,67,260,55,287,241,268,276,107,17,5,150,297,95,270,233,288,299,239,121,103,283,190,102,291,96,91,65,141,205,193,34,281,106,109,254,296,58,123,81,244,129,293,118,112,167,180,243,144,159,59,45,178,217,200,147,223,229,259,183,97,208,104,105,189,290,182,68,218,71,156,39,203,6,126,75,176,33,140,284,279,186,1,206,174,35]","5","arrowright","19","false"
