"view_history","rt","trial_type","trial_index","time_elapsed","internal_node_id","response","nodesOrdering","cliqueSize","correctResponse","correctnessOfResponse","presentationNumber"
"[{""page_index"":0,""viewing_time"":1084}]","1084","instructions","0","1085","0.0-0.0","","","","","",""
"","806","canvas-keyboard-response","1","3549","0.0-1.0-0.0-0.0","arrowright","[206,53,241,48,270,225,90,24,179,240,260,178,204,135,115,60,63,96,280,112,109,245,172,27,222,32,158,173,43,258,93,101,23,228,288,278,207,105,46,232,297,284,75,133,226,176,170,25,102,249,122,148,212,275,175,131,177,139,217,13,251,210,144,87,66,61,0,55,267,259,80,88,28,70,77,76,137,218,41,141,140,97,7,44,209,248,92,42,213,15,138,154,86,274,119,117,192,290,126,136,125,26,71,85,128,129,152,171,234,197,191,1,157,283,64,98,294,181,58,287,244,74,237,37,296,162,153,89,168,104,50,195,298,202,45,221,123,3,230,256,52,165,127,33,38,254,196,17,223,99,30,185,47,224,56,83,233,62,216,238,261,149,40,214,124,4,91,242,289,198,78,236,73,79,147,295,252,166,167,100,94,281,262,190,39,268,21,67,269,276,164,114,84,253,116,2,120,134,203,12,180,243,201,219,184,145,49,277,22,159,282,174,132,264,5,34,239,72,10,146,59,35,16,286,263,229,266,235,187,19,250,205,183,156,121,182,113,103,14,54,29,95,20,211,208,186,246,291,155,142,257,6,151,118,292,163,65,265,9,143,111,81,255,299,150,51,82,194,18,227,160,31,110,247,271,220,11,272,193,215,57,273,189,188,107,161,106,69,130,200,231,199,279,169,293,285,8,68,108,36]","100","arrowright","true","0"
"","1281","canvas-keyboard-response","2","6509","0.0-2.0-0.0-0.0","arrowright","[150,252,12,80,297,164,92,116,167,140,3,83,221,151,255,2,115,254,180,287,118,293,258,198,73,266,142,129,85,187,38,11,251,159,28,119,59,163,270,213,35,123,261,193,165,18,111,146,233,227,61,292,93,274,48,286,201,90,37,96,6,236,148,121,246,41,272,131,66,250,280,26,275,67,155,94,57,137,218,53,223,89,14,21,9,132,160,10,27,36,299,185,29,109,219,13,189,63,278,72,44,209,291,112,22,1,294,225,122,237,273,276,43,191,168,208,139,211,153,76,245,136,23,87,184,277,179,158,147,222,117,128,39,16,91,283,104,0,238,170,212,197,101,205,289,285,177,50,125,144,265,5,156,182,103,54,226,78,154,114,24,214,257,175,188,46,295,195,206,8,172,220,127,210,31,15,58,178,173,241,64,69,82,194,281,47,99,134,259,202,166,75,4,107,106,203,196,52,228,282,161,32,86,162,260,30,34,7,62,232,110,141,262,100,98,17,55,279,102,70,243,267,68,216,124,19,190,235,143,242,186,249,71,97,174,108,248,183,133,25,20,253,200,49,149,264,298,288,130,192,40,113,79,81,88,56,199,45,51,84,42,247,269,244,256,271,204,231,77,152,120,126,215,224,33,284,176,95,296,157,207,229,290,169,181,65,217,268,105,239,240,74,263,234,230,138,145,171,135,60]","95","arrowright","true","1"
"","1353","canvas-keyboard-response","3","9549","0.0-3.0-0.0-0.0"," ","[77,109,79,54,16,191,0,89,170,182,152,39,270,130,121,8,214,138,27,51,114,201,67,250,265,104,42,283,58,13,118,180,299,294,240,103,280,213,259,116,258,162,261,124,62,244,219,211,289,113,10,188,255,153,87,260,102,209,210,21,268,108,206,169,37,186,48,136,119,141,68,133,73,112,205,84,230,85,292,194,291,14,50,207,25,97,59,217,134,123,32,196,195,24,137,150,53,231,86,177,236,293,72,193,218,105,174,74,43,164,171,269,12,35,81,161,7,275,262,64,9,139,224,110,11,101,71,198,156,185,264,145,90,44,5,226,30,288,94,199,225,227,66,18,117,157,276,154,204,91,127,246,295,49,286,282,159,189,28,233,237,46,285,279,158,168,183,176,278,252,215,234,272,20,2,55,238,22,253,143,147,298,241,273,140,129,60,151,221,166,63,88,190,115,26,146,247,45,76,165,239,34,256,251,125,1,3,267,38,78,163,128,122,120,203,132,65,200,56,47,242,4,184,222,131,82,52,235,98,107,29,135,173,220,229,232,148,31,142,111,274,245,126,181,23,284,61,155,254,99,33,178,17,266,6,296,69,212,100,248,202,216,257,281,41,287,80,175,208,172,75,228,95,93,277,167,197,36,19,290,83,243,179,271,70,223,192,96,249,15,149,40,144,106,263,92,187,297,160,57]","90","arrowleft","","2"
"","381","canvas-keyboard-response","4","11613","0.0-3.1-0.1-0.1"," ","[263,163,132,290,143,64,195,158,235,283,216,148,270,4,267,134,8,247,5,226,68,237,234,178,271,196,176,219,230,91,122,102,108,179,94,287,62,72,222,200,204,9,103,45,224,168,281,162,289,39,10,209,48,17,164,47,150,189,97,286,177,181,192,71,233,67,215,202,165,58,272,87,7,6,249,194,228,112,184,186,274,114,225,175,31,285,86,298,152,135,27,83,40,92,38,205,253,257,232,146,284,151,297,18,63,211,157,65,136,276,144,210,50,66,119,26,213,251,73,60,98,269,2,35,288,208,59,187,203,238,183,167,54,278,296,161,127,14,118,236,218,279,280,243,33,220,282,80,100,96,131,109,85,299,3,130,268,227,43,89,145,244,242,239,121,116,111,74,153,160,240,128,24,185,11,13,140,93,295,217,78,137,79,25,254,256,55,262,115,52,246,81,95,173,255,124,123,207,1,229,252,245,82,76,19,156,84,155,180,113,32,190,125,75,248,169,291,101,57,126,142,241,16,231,28,110,37,88,12,44,188,293,260,264,61,191,107,49,199,106,265,198,70,214,133,294,41,36,53,139,29,141,15,149,69,275,166,159,23,258,197,261,259,56,0,212,171,129,172,206,46,104,20,182,117,154,250,42,174,30,273,105,22,223,221,51,99,90,147,277,193,34,266,77,120,201,21,170,138,292]","90","arrowleft","","2"
"","429","canvas-keyboard-response","5","13724","0.0-3.2-0.2-0.2","arrowleft","[282,244,35,248,283,93,37,239,225,249,271,185,169,73,146,112,123,55,24,257,109,75,125,82,118,278,41,25,232,190,90,220,140,84,31,67,16,89,11,127,21,111,63,274,279,253,252,243,17,97,141,162,91,56,49,94,45,34,198,9,152,224,95,265,285,179,229,103,218,135,149,148,209,53,273,6,126,237,196,121,168,194,170,241,270,19,240,182,187,281,107,213,59,295,144,242,286,236,269,208,233,287,221,102,51,157,150,64,219,297,199,160,46,110,206,227,145,61,235,280,183,30,156,106,1,88,12,184,47,186,205,10,115,290,176,230,18,62,293,26,105,142,226,68,72,159,44,275,80,100,38,276,129,203,13,143,255,200,66,161,32,215,251,136,254,158,222,5,272,258,130,246,69,23,247,81,191,268,250,7,260,172,261,139,86,189,33,207,60,277,4,3,212,122,171,2,58,113,151,288,177,43,181,214,296,174,211,77,27,210,192,116,14,71,40,165,262,228,155,20,188,223,83,117,163,217,195,57,99,173,133,96,178,28,101,120,78,124,231,98,256,65,29,204,153,85,234,42,119,266,180,132,166,131,289,291,292,36,201,238,76,70,137,87,104,164,74,299,154,167,202,114,138,108,216,92,264,22,147,197,8,79,0,15,267,284,54,50,193,263,245,294,39,128,52,48,259,175,134,298]","90","arrowleft","true","2"
"","699","canvas-keyboard-response","6","16114","0.0-4.0-0.0-0.0","arrowright","[160,139,154,33,57,102,147,79,277,246,29,294,189,268,63,291,144,205,59,68,200,104,38,127,106,18,213,39,215,10,262,263,286,155,143,49,149,141,24,122,229,70,150,168,114,253,173,234,163,36,184,177,203,43,281,169,199,194,72,233,282,267,204,295,254,222,0,167,299,285,266,41,161,62,269,11,80,14,238,84,3,251,130,115,64,209,129,298,265,175,113,202,255,100,107,46,5,30,151,83,183,65,45,81,172,35,93,232,97,19,264,290,121,1,237,273,259,166,69,221,218,193,112,171,40,95,191,67,73,258,158,133,227,270,249,214,297,23,207,118,156,176,22,92,88,61,77,195,85,206,27,148,185,15,34,12,78,224,212,86,153,179,123,66,58,101,91,20,178,283,75,174,7,17,243,138,201,111,276,16,190,247,9,231,208,126,119,44,280,196,105,260,162,4,219,187,210,287,225,292,124,37,157,109,50,217,182,257,146,165,2,125,223,293,284,289,275,120,242,8,31,220,13,248,54,250,164,134,170,60,90,74,96,236,99,137,47,245,278,180,82,226,198,110,272,94,216,52,192,132,51,48,288,261,71,271,230,241,108,89,296,117,6,103,252,279,181,159,186,136,131,145,152,21,25,135,244,26,87,188,76,140,228,116,142,256,55,53,32,197,274,128,98,235,211,56,42,240,28,239]","85","arrowright","true","3"
"","875","canvas-keyboard-response","7","18674","0.0-5.0-0.0-0.0","arrowleft","[78,208,32,103,276,149,60,148,259,102,58,178,50,268,132,72,27,3,51,142,137,40,279,104,179,223,153,252,91,35,277,99,176,286,224,122,0,206,24,76,240,93,258,94,166,68,296,181,253,45,139,167,52,117,183,195,154,290,297,280,169,172,209,281,83,8,269,248,217,138,108,257,255,101,213,271,265,21,62,66,192,161,120,202,106,233,244,63,150,267,278,119,203,235,226,232,1,64,231,215,134,185,151,147,9,82,198,174,98,10,92,57,193,157,254,11,87,55,191,23,219,246,262,292,96,207,164,170,273,38,212,165,109,100,201,56,295,238,26,187,293,61,218,184,28,194,112,227,121,53,54,81,270,15,145,228,243,85,216,177,6,287,143,126,80,75,39,74,44,204,113,88,159,239,272,41,168,200,289,107,46,152,30,189,163,237,221,84,17,264,43,42,210,229,251,220,111,211,136,90,285,205,249,115,130,242,19,245,89,236,59,7,12,16,125,14,247,4,135,5,188,288,69,49,33,114,133,79,70,162,37,31,67,180,299,95,234,222,20,48,260,105,47,127,131,241,256,182,230,173,128,155,171,77,190,158,2,197,294,263,86,140,25,22,160,146,144,274,141,13,266,116,283,261,196,123,284,298,36,186,124,275,110,34,129,18,282,118,175,73,29,97,71,65,156,199,291,250,225,214]","80","arrowleft","true","4"
"","397","canvas-keyboard-response","8","20754","0.0-6.0-0.0-0.0"," ","[158,238,28,235,143,110,136,294,43,61,244,241,169,168,22,105,55,173,193,240,195,52,146,8,130,175,69,252,20,119,267,185,85,38,299,265,198,164,67,96,229,114,39,57,165,115,41,87,220,246,148,284,192,123,279,170,273,45,154,58,103,80,48,254,120,10,100,108,12,247,42,287,232,30,138,81,270,257,31,14,66,133,54,23,144,174,188,157,70,272,209,218,131,101,226,93,122,290,225,259,121,17,129,242,283,180,47,191,179,214,161,206,256,147,19,65,88,98,2,79,116,249,89,15,183,4,295,49,278,128,7,156,152,250,149,145,285,263,112,59,106,127,201,63,203,227,84,233,217,163,36,178,210,277,75,251,137,213,32,3,50,288,237,221,104,141,266,219,215,109,13,24,239,231,189,292,271,274,26,21,117,268,151,211,125,29,132,194,37,140,90,248,139,223,280,51,262,286,124,181,236,296,253,16,27,83,243,197,162,99,275,186,234,199,159,293,166,245,34,282,35,289,172,18,228,118,155,212,160,208,281,182,222,6,269,40,71,46,5,202,56,74,184,68,44,76,167,25,255,171,64,97,72,204,200,53,95,91,33,260,224,77,150,205,258,1,9,82,135,0,111,60,126,94,113,107,190,230,92,176,276,142,78,207,187,73,62,177,134,11,298,153,291,297,261,196,86,264,216,102]","75","arrowright","","5"
"","457","canvas-keyboard-response","9","22914","0.0-6.1-0.1-0.1","arrowright","[171,157,216,105,182,119,253,299,56,233,207,137,22,294,122,53,67,82,141,130,150,210,181,35,271,39,229,275,240,184,195,255,269,0,81,121,268,196,162,199,127,192,262,134,2,16,161,293,223,243,86,252,48,66,136,154,235,118,158,6,28,160,174,29,259,169,189,87,3,231,297,194,103,260,116,80,129,211,159,11,251,287,151,25,289,43,91,140,109,236,291,239,209,248,92,61,21,1,18,145,267,278,94,100,212,63,70,203,108,191,9,73,201,153,295,282,147,12,228,198,281,264,135,64,156,33,31,101,45,8,177,42,204,49,90,69,220,98,123,237,186,280,274,106,215,32,214,38,7,224,85,245,202,234,272,78,71,102,138,206,133,37,104,112,83,152,227,265,288,15,256,50,167,197,273,247,258,242,27,89,110,75,77,298,164,208,205,54,97,225,60,190,124,222,226,111,96,62,5,148,51,23,296,128,30,72,261,187,131,213,217,244,68,175,250,185,284,170,24,120,173,26,113,276,114,146,263,193,17,57,10,166,292,266,279,238,46,172,4,200,219,257,232,117,84,168,149,218,241,44,95,13,20,126,188,41,65,79,286,144,36,230,139,179,270,142,176,59,52,285,74,246,99,254,47,283,34,14,183,76,132,165,143,107,125,163,19,290,155,58,221,88,180,277,115,249,178,40,55,93]","75","arrowright","true","5"
"","5897","canvas-keyboard-response","10","30514","0.0-7.0-0.0-0.0"," ","[43,280,170,149,239,55,226,44,215,29,126,258,295,4,72,148,234,26,185,190,32,211,247,169,139,225,132,233,119,173,268,160,54,78,150,47,65,12,20,60,231,152,129,261,277,114,209,104,50,69,189,179,111,238,269,290,176,174,75,199,23,205,87,93,68,117,293,223,260,168,131,224,21,19,201,278,230,33,42,124,61,162,177,67,140,82,221,31,163,197,133,38,9,74,159,203,2,142,89,273,245,210,103,34,7,195,217,175,10,90,137,283,51,49,100,27,115,180,166,279,216,58,39,227,80,113,218,84,240,206,106,298,120,156,275,256,37,64,127,11,94,157,151,96,48,85,46,76,25,88,286,246,276,198,288,1,110,105,135,208,252,250,73,56,161,165,0,183,86,118,66,259,16,155,172,291,5,125,214,235,98,178,153,15,112,274,107,282,95,264,14,13,251,228,71,101,141,263,59,154,244,284,294,171,184,57,187,18,128,281,99,17,265,62,202,116,24,130,237,35,136,138,285,204,102,97,182,289,232,213,79,109,188,36,248,257,297,30,271,267,145,40,22,134,196,207,262,77,52,266,167,287,193,242,254,194,241,292,296,3,146,220,192,91,222,63,255,45,81,158,92,121,8,299,270,236,243,123,253,249,41,181,212,108,53,200,219,70,122,144,83,6,28,186,191,272,143,164,229,147]","70","arrowleft","","6"
"","2402","canvas-keyboard-response","11","34594","0.0-7.1-0.1-0.1","arrowleft","[43,267,65,150,174,132,181,0,100,81,50,156,271,234,222,64,38,146,233,58,61,210,273,119,95,99,282,268,164,17,54,120,96,129,124,182,69,37,29,298,133,229,76,83,103,102,141,25,292,18,109,214,108,198,7,197,277,117,130,121,179,137,19,230,91,264,51,199,209,8,294,285,154,176,142,35,89,235,68,98,170,296,77,49,274,213,16,206,93,224,286,139,188,185,127,6,212,167,191,280,71,227,118,173,243,241,216,26,40,266,56,190,106,144,161,196,219,275,171,261,177,12,70,62,254,67,239,297,138,205,47,134,97,236,291,84,265,75,53,73,299,278,122,1,4,57,36,30,46,3,279,245,80,270,226,253,221,195,232,201,192,34,248,128,281,125,215,140,143,147,10,148,152,104,157,293,295,107,90,237,66,39,251,5,116,136,186,32,249,223,238,172,85,79,231,92,114,284,200,78,257,22,94,263,13,63,158,52,220,244,159,55,272,160,193,101,276,283,113,162,175,289,180,262,207,166,246,60,105,194,15,163,260,20,168,242,165,111,28,27,110,131,2,74,269,9,225,202,45,24,208,41,287,290,151,42,82,112,250,178,31,288,86,115,135,259,149,256,33,204,252,189,59,169,211,87,218,183,14,184,153,44,21,255,126,88,145,217,123,155,240,23,72,11,187,247,258,203,48,228]","70","arrowleft","true","6"
"","1223","canvas-keyboard-response","12","37506","0.0-8.0-0.0-0.0","arrowleft","[93,237,102,127,3,6,171,168,44,68,133,139,291,92,50,1,112,174,45,260,224,222,144,280,10,64,217,251,80,258,149,214,11,236,147,141,241,4,60,21,42,28,231,110,283,248,78,157,83,219,257,94,184,27,105,52,120,59,191,200,29,173,75,159,79,188,169,250,37,166,13,34,230,181,76,101,8,284,121,118,61,115,114,209,40,82,150,35,72,70,198,238,131,202,33,15,57,227,195,122,58,204,211,270,155,145,203,170,249,286,255,97,167,103,282,96,55,190,138,69,276,161,88,207,245,298,266,158,135,90,9,186,84,108,2,185,175,130,206,104,116,152,7,208,132,294,54,164,125,242,43,234,30,212,240,233,25,136,201,63,100,95,235,187,285,293,77,265,194,89,179,220,290,213,178,0,56,196,46,172,156,243,39,229,180,228,111,272,189,281,23,65,225,146,117,253,153,106,197,119,14,143,51,107,22,67,18,62,128,73,292,26,32,289,38,53,154,36,160,31,263,232,137,142,109,47,12,216,299,20,182,264,124,81,275,148,85,288,246,151,218,5,123,41,259,193,239,261,287,165,126,267,24,176,192,99,98,268,163,19,226,177,71,48,271,278,87,183,247,215,274,262,17,223,252,244,66,210,256,279,140,273,16,199,221,269,49,296,74,297,134,205,162,113,254,277,91,86,129,295]","65","arrowleft","true","7"
"","1015","canvas-keyboard-response","13","40226","0.0-9.0-0.0-0.0"," ","[209,43,259,237,35,142,178,175,182,215,119,20,40,194,267,55,282,154,123,28,118,109,137,264,158,271,30,294,206,155,232,135,284,131,173,32,196,87,144,181,287,122,269,2,128,243,147,14,293,126,134,238,62,130,51,290,291,190,199,15,75,276,9,297,285,96,106,82,288,242,188,225,283,153,58,272,0,17,150,63,13,192,34,292,115,185,217,220,156,41,239,266,197,110,224,52,139,104,210,246,80,21,212,261,255,25,98,138,132,124,12,299,143,74,70,22,241,66,18,195,83,270,213,95,26,228,65,136,57,274,262,245,289,108,78,250,77,279,205,45,59,265,234,298,11,296,164,127,176,191,180,223,71,91,146,10,252,179,233,69,169,141,216,89,203,152,280,47,42,61,49,29,208,170,24,73,231,36,221,112,160,149,167,202,165,60,46,145,8,117,168,140,100,278,258,86,68,268,133,286,103,88,171,114,189,113,125,92,37,107,248,84,5,3,166,186,90,67,27,99,207,163,256,151,148,240,193,121,247,236,174,253,94,230,183,257,277,23,4,105,249,198,64,263,81,44,260,159,235,19,48,16,129,229,251,172,120,161,38,204,227,6,116,101,211,76,53,187,177,244,226,93,39,111,54,56,33,97,219,275,72,295,222,162,200,201,102,1,254,218,31,273,79,85,214,184,50,281,157,7]","60","arrowleft","","8"
"","527","canvas-keyboard-response","14","42434","0.0-9.1-0.1-0.1"," ","[274,283,51,110,215,112,183,129,19,3,7,58,74,173,214,220,23,92,159,231,187,254,243,114,184,250,31,207,108,9,201,78,225,66,8,292,246,251,285,36,100,121,253,197,154,125,264,266,256,22,118,120,0,62,230,73,232,28,206,47,276,261,198,29,208,228,61,270,109,105,150,213,149,69,44,196,55,177,268,267,18,56,188,68,229,193,84,163,128,189,115,49,182,211,97,32,298,248,174,80,166,43,75,296,289,142,265,63,35,178,170,271,294,17,263,101,54,67,139,91,89,122,179,158,1,237,103,277,40,132,238,88,191,12,144,155,52,79,59,87,203,81,143,53,33,48,227,140,186,96,175,221,297,27,280,39,86,107,76,83,209,259,134,288,124,38,26,160,171,138,281,205,162,291,167,290,249,85,190,145,4,240,65,185,123,279,42,242,57,299,257,282,224,98,6,102,195,169,15,141,244,286,34,275,219,200,50,117,21,25,24,164,46,106,235,16,20,82,172,273,64,45,5,245,210,126,99,119,2,94,247,153,233,180,111,234,176,222,284,30,147,258,104,269,41,70,295,192,161,252,226,239,10,90,168,71,136,260,204,135,287,156,194,216,11,181,116,165,77,157,95,137,148,60,278,113,217,131,13,262,236,202,93,241,293,72,127,37,212,14,152,199,218,223,130,133,272,255,151,146]","60","arrowleft","","8"
"","453","canvas-keyboard-response","15","44578","0.0-9.2-0.2-0.2","arrowleft","[120,205,13,7,187,139,137,269,39,94,3,100,287,197,42,21,122,260,17,266,277,296,161,35,293,148,20,245,109,37,212,78,91,98,56,36,88,110,168,131,129,135,136,27,170,112,265,77,290,87,14,254,50,73,125,140,255,289,24,282,38,227,257,104,216,127,252,12,258,281,108,30,83,200,10,130,74,96,288,48,165,41,182,28,143,141,64,80,173,218,23,33,63,103,190,107,192,157,176,292,278,25,297,138,193,188,231,52,82,156,194,273,111,95,61,72,16,204,0,22,237,253,154,153,233,232,169,246,244,147,167,124,283,228,175,11,97,51,40,299,102,18,134,54,6,248,276,155,99,32,166,230,121,241,274,213,113,142,146,84,133,284,4,9,239,243,202,294,123,128,132,90,195,19,203,5,263,181,236,62,43,214,226,184,66,69,268,295,261,160,114,174,185,264,206,29,76,8,208,210,67,70,242,259,209,46,199,201,65,31,224,93,238,144,217,247,75,164,291,106,163,53,249,256,162,89,158,68,196,262,171,177,2,119,86,180,219,49,207,222,58,149,151,251,240,191,215,183,271,272,186,198,34,47,152,279,172,85,26,221,81,118,298,57,44,55,280,285,211,250,117,267,45,220,229,286,178,150,116,223,270,145,105,179,234,79,159,126,92,60,189,115,59,71,235,101,275,15,1,225]","60","arrowleft","true","8"
"","1207","canvas-keyboard-response","16","47490","0.0-10.0-0.0-0.0","arrowright","[104,192,116,182,193,171,262,23,27,179,106,15,196,298,81,25,2,87,286,219,148,44,258,247,238,167,31,269,145,117,59,119,261,186,10,245,74,26,162,49,177,137,173,84,206,72,210,264,213,150,188,99,102,91,174,138,29,225,156,211,272,56,283,217,139,103,257,130,271,64,4,222,248,201,16,244,169,187,3,79,43,242,132,38,8,256,61,151,161,197,288,11,277,97,69,83,110,180,0,243,9,297,5,207,240,89,166,202,62,77,48,208,170,67,158,45,152,285,165,76,255,254,237,19,51,299,236,95,92,296,157,178,115,53,131,1,155,153,231,75,129,32,22,60,181,57,127,284,195,93,113,233,6,21,82,293,68,121,183,135,273,65,216,80,34,30,253,228,122,70,275,220,224,71,101,98,205,37,295,86,94,124,35,55,229,50,294,267,251,200,17,176,58,246,114,212,260,280,175,281,147,184,194,24,191,133,144,276,141,268,160,140,128,252,230,73,149,263,118,40,218,290,46,18,289,136,20,134,126,7,90,154,88,142,241,223,54,28,221,78,96,172,190,107,125,270,108,13,209,120,259,12,226,33,146,215,185,36,189,203,105,42,164,287,227,265,100,279,235,168,214,234,159,239,39,249,291,14,204,163,85,278,232,109,47,112,292,143,111,282,41,63,266,198,123,274,52,199,66,250]","55","arrowleft","false","9"
"","889","canvas-keyboard-response","17","50050","0.0-11.0-0.0-0.0"," ","[248,19,175,3,211,205,132,71,258,191,16,92,6,185,51,245,222,181,36,213,207,152,57,78,265,113,49,29,140,155,217,127,293,154,243,189,28,136,286,159,242,30,23,283,169,218,204,252,70,13,278,135,58,76,40,200,90,111,120,289,259,103,26,141,228,236,112,261,63,133,117,235,45,64,215,8,246,298,292,244,102,89,170,75,73,25,295,166,1,271,81,206,116,190,276,210,7,268,145,186,35,220,269,251,115,126,79,177,219,270,231,233,22,226,203,39,60,234,153,27,167,34,178,21,240,4,14,156,150,260,193,109,59,42,52,0,148,87,50,99,91,128,123,33,294,187,31,130,77,104,221,122,74,165,183,280,297,229,209,110,176,97,172,273,88,290,201,105,237,98,18,238,143,255,69,66,230,250,184,223,208,131,121,179,119,157,108,288,17,279,83,256,46,72,118,216,182,214,93,142,125,198,9,11,54,137,168,212,44,199,38,114,287,192,162,85,277,225,291,56,107,284,188,146,101,15,139,65,158,180,67,129,68,55,80,24,196,5,174,241,2,173,163,296,160,82,134,264,94,161,100,285,96,274,124,267,272,144,61,48,299,239,43,151,249,84,106,86,197,266,138,224,171,275,282,281,47,10,247,41,62,263,262,20,53,37,164,227,95,149,253,147,254,32,257,202,12,232,194,195]","50","arrowleft","","10"
"","3554","canvas-keyboard-response","18","55282","0.0-11.1-0.1-0.1"," ","[124,151,189,132,130,36,72,65,216,236,251,248,226,111,279,76,298,294,290,193,7,170,85,34,79,44,276,185,129,224,241,52,235,28,297,150,133,239,191,80,145,31,137,262,53,263,63,164,153,144,57,48,89,22,246,35,117,230,212,107,204,267,50,108,275,54,61,9,60,112,209,99,104,87,167,139,277,292,266,17,217,232,286,154,285,249,163,86,181,259,228,201,91,49,16,37,148,105,103,94,221,190,281,200,5,159,134,115,161,20,92,233,202,74,97,180,128,83,51,73,45,78,172,1,56,149,82,47,58,68,81,182,258,273,6,282,237,126,213,98,15,69,171,157,176,93,39,27,88,293,211,11,4,178,184,118,146,114,106,165,136,250,192,0,274,223,30,8,240,218,247,143,162,168,2,26,70,100,205,283,21,123,67,234,207,254,122,120,196,169,173,24,135,121,38,13,179,127,253,116,271,244,90,109,119,10,206,62,242,42,23,231,227,188,288,199,96,272,174,147,19,183,177,210,55,219,3,29,229,156,33,197,141,243,252,245,222,187,25,125,142,257,268,152,195,40,295,203,208,198,280,32,43,299,289,284,225,278,264,270,18,101,255,269,287,140,296,214,71,66,64,12,75,158,110,131,59,102,77,160,215,138,166,260,14,84,95,41,175,256,46,265,194,291,238,113,220,155,261,186]","50","arrowleft","","10"
"","431","canvas-keyboard-response","19","57394","0.0-11.2-0.2-0.2","arrowleft","[237,184,205,16,4,142,199,218,104,157,247,37,170,0,116,26,71,60,232,178,120,270,163,284,84,20,225,298,110,62,24,28,180,254,64,174,91,224,201,105,107,126,189,138,258,102,82,80,283,63,121,124,216,289,96,6,92,57,139,204,36,265,190,185,98,275,130,268,55,7,132,214,231,45,145,79,167,113,183,77,111,255,158,17,131,123,160,179,221,220,75,115,219,69,266,151,81,175,286,195,85,103,14,59,58,164,243,259,193,217,209,197,233,215,52,281,234,32,200,154,87,12,83,43,230,51,22,227,46,248,18,278,99,65,274,211,280,137,293,66,261,90,38,10,39,236,285,3,47,152,134,222,34,208,27,206,48,203,213,108,56,21,166,100,263,88,153,78,207,112,49,229,74,148,176,242,282,72,162,287,109,238,264,235,165,2,187,299,161,25,172,241,97,198,41,117,136,249,169,277,23,149,61,250,114,35,196,245,147,244,188,269,73,177,106,150,173,128,29,272,182,118,9,70,53,141,279,140,228,291,144,129,240,127,11,297,143,260,212,271,89,93,168,226,133,295,256,191,5,146,33,76,276,31,135,15,54,40,68,262,156,267,288,202,292,257,210,1,44,252,296,273,159,125,294,246,13,155,50,253,42,8,30,290,181,19,251,122,192,119,67,239,171,86,95,101,194,223,186,94]","50","arrowleft","true","10"
"","748","canvas-keyboard-response","20","59842","0.0-12.0-0.0-0.0","arrowright","[106,9,262,179,267,250,133,186,292,1,240,183,263,35,144,83,187,203,154,75,155,172,189,205,127,201,265,243,86,65,233,204,244,44,253,255,64,296,56,147,289,169,268,184,69,225,93,206,145,275,74,269,41,7,26,109,134,95,196,142,209,177,14,17,140,11,234,137,141,192,213,90,89,281,222,63,221,297,207,105,60,138,247,229,21,159,45,194,223,96,3,279,199,171,231,239,131,103,94,129,27,61,121,260,214,236,272,85,190,126,67,148,180,230,195,119,124,51,277,238,108,143,170,197,257,15,4,285,241,54,193,212,284,115,114,110,57,136,37,52,99,298,58,294,153,217,227,111,130,293,146,210,182,20,47,237,125,100,258,49,62,19,102,245,97,101,40,274,0,165,25,224,173,117,116,13,79,242,164,73,68,254,2,168,33,71,174,22,163,252,135,276,248,31,50,91,43,226,6,271,81,122,295,128,202,28,98,8,10,34,178,112,261,59,270,219,5,256,16,198,53,152,161,80,120,36,220,139,70,264,181,48,176,55,232,29,32,123,191,84,158,235,287,175,208,151,215,24,38,107,259,291,218,216,246,23,185,92,273,156,132,113,78,77,162,118,282,46,200,39,87,251,228,188,280,290,299,288,66,149,30,286,266,157,283,18,72,88,211,150,166,12,278,104,160,42,82,76,167,249]","45","arrowright","true","11"
"","437","canvas-keyboard-response","21","61954","0.0-13.0-0.0-0.0"," ","[112,91,142,176,179,161,109,287,78,43,160,108,120,217,192,83,222,82,57,178,100,127,50,80,151,230,144,28,15,97,233,299,223,156,293,258,49,34,8,87,246,191,294,167,205,70,252,35,197,92,273,267,228,149,30,278,94,135,90,12,138,77,40,110,103,56,229,291,165,93,266,158,152,282,219,146,257,11,131,44,126,180,52,76,210,64,63,225,284,47,1,213,200,204,244,187,254,159,172,186,277,68,114,39,170,0,174,23,107,211,26,89,150,125,66,269,290,262,181,99,32,19,122,289,271,163,255,164,247,58,190,166,31,226,132,232,281,136,249,134,218,118,69,65,248,72,272,221,298,274,16,203,220,215,173,115,214,84,106,6,51,130,59,24,60,212,74,279,101,286,236,20,251,183,235,18,29,241,231,261,3,206,280,285,154,145,96,95,234,295,36,184,45,53,98,113,48,224,250,169,168,121,75,198,155,194,265,33,256,275,148,46,270,264,62,237,240,296,182,61,175,14,199,42,9,288,140,37,185,73,239,208,139,25,253,243,22,171,188,260,263,88,119,2,4,71,137,216,5,276,17,105,13,238,193,297,195,162,7,147,104,189,38,67,292,10,177,79,157,21,85,111,102,116,129,128,54,123,133,209,55,41,283,117,81,259,143,141,202,201,242,268,153,196,227,207,245,27,124,86]","40","arrowright","","12"
"","439","canvas-keyboard-response","22","64082","0.0-13.1-0.1-0.1","arrowright","[88,80,181,29,40,23,278,63,104,282,151,261,42,160,96,259,253,127,74,249,101,76,162,110,108,185,157,281,161,204,72,3,147,28,291,241,98,87,229,1,123,49,103,237,30,120,118,83,254,31,154,207,37,172,125,205,211,217,7,142,156,265,228,65,45,173,24,141,216,240,54,92,22,70,230,20,190,203,295,140,167,226,171,111,187,38,257,186,209,35,75,218,138,296,280,67,176,18,202,233,266,239,283,41,146,86,117,236,48,46,234,247,223,287,97,152,115,106,250,124,155,168,248,196,180,225,174,133,114,170,105,145,68,14,212,99,15,25,122,210,286,177,132,6,4,90,71,198,128,227,121,81,215,58,267,220,84,277,78,164,89,69,100,293,201,116,299,165,91,13,179,10,109,206,235,244,195,289,2,85,175,148,274,135,79,243,93,252,182,113,284,129,159,60,57,251,298,34,21,64,242,273,224,139,17,188,292,270,279,158,66,136,0,137,131,51,264,102,208,245,290,53,256,194,144,231,47,73,285,192,95,200,189,183,59,272,268,258,197,260,19,52,32,153,39,184,5,55,275,50,82,222,193,219,112,62,61,163,12,56,126,232,119,213,191,26,107,134,262,178,246,269,8,149,263,255,221,288,214,150,169,43,27,143,130,16,44,297,33,77,199,9,94,166,271,294,36,276,238,11]","40","arrowright","true","12"
"","948","canvas-keyboard-response","23","66738","0.0-14.0-0.0-0.0","arrowright","[33,186,227,244,174,261,184,110,46,59,95,139,149,126,288,278,213,53,245,238,73,104,226,102,120,229,284,176,269,234,34,144,57,98,84,87,125,249,130,52,86,136,3,192,252,143,51,259,208,75,0,124,231,225,257,39,15,127,168,219,85,159,296,195,5,185,181,290,232,274,20,265,276,243,205,285,297,121,270,11,123,197,116,109,283,42,210,183,81,202,2,31,262,279,71,268,103,13,66,4,177,101,117,41,140,56,161,92,160,19,91,94,47,157,266,254,230,16,209,236,273,153,203,154,72,99,29,164,246,93,141,235,224,32,156,204,267,155,122,233,112,38,108,281,167,292,172,69,100,89,211,260,201,24,131,239,214,96,170,107,158,256,147,150,294,26,48,138,82,289,286,106,217,135,207,28,171,263,50,295,77,76,133,145,247,18,67,60,264,148,22,190,146,68,250,218,10,179,88,206,169,54,216,36,40,27,165,175,17,221,113,291,6,12,132,162,240,198,151,212,180,115,62,21,129,119,242,128,272,228,237,258,14,293,178,163,196,65,64,114,253,63,275,193,8,182,30,23,105,287,200,44,137,199,83,189,25,173,7,74,118,1,222,111,61,43,255,37,134,78,55,152,188,277,79,90,35,49,166,298,215,191,251,58,142,45,271,299,220,194,70,280,187,80,9,282,248,241,97,223]","35","arrowright","true","13"
"","725","canvas-keyboard-response","24","69138","0.0-15.0-0.0-0.0","arrowright","[236,237,83,70,181,65,134,52,295,139,154,283,180,22,12,147,148,97,215,79,277,145,47,60,15,253,84,57,66,230,260,49,18,56,151,141,264,14,80,212,192,50,234,266,42,258,108,220,224,11,30,207,164,297,37,20,100,91,81,196,232,140,113,160,247,0,8,249,59,263,107,77,259,39,177,290,123,46,1,294,209,168,246,216,244,182,103,29,217,186,24,229,288,219,89,239,289,175,124,255,245,200,214,178,299,205,293,13,193,32,31,129,218,183,276,58,275,118,198,102,201,61,127,17,158,227,176,62,122,188,223,64,166,254,291,157,67,242,252,78,191,189,54,4,106,282,280,274,3,278,163,33,72,250,44,7,96,28,25,85,210,281,170,48,63,40,73,267,130,119,221,251,9,228,292,203,88,71,101,90,142,138,126,269,41,2,208,51,197,271,270,272,153,146,162,99,121,112,98,195,262,149,256,190,287,76,69,206,226,115,16,109,5,19,93,261,104,53,268,132,74,105,173,199,235,296,87,36,285,6,279,128,298,75,10,125,185,152,184,26,137,155,204,174,222,240,233,167,131,172,211,114,94,238,86,150,55,92,135,171,27,23,144,111,202,143,241,286,169,43,34,273,120,159,213,110,38,194,21,248,179,82,243,136,117,156,265,68,133,95,187,116,35,284,231,257,165,225,45,161]","30","arrowleft","false","14"
"","717","canvas-keyboard-response","25","71538","0.0-16.0-0.0-0.0","arrowleft","[93,252,6,203,284,41,276,29,80,7,188,20,33,254,224,215,111,18,66,45,104,92,97,9,239,296,169,290,228,21,183,54,138,210,130,286,126,221,200,30,10,152,268,241,154,277,19,26,51,258,95,272,279,253,192,105,137,161,289,292,133,125,135,178,39,202,61,242,236,158,1,288,197,195,145,31,64,84,140,207,108,180,234,256,220,128,291,225,298,287,3,0,153,257,248,120,167,47,160,251,204,232,222,78,68,87,136,73,44,157,211,165,85,81,148,155,198,52,62,116,59,190,132,150,219,247,69,53,107,218,245,262,100,235,70,27,144,129,230,106,168,264,102,217,131,99,174,75,12,209,266,173,58,112,244,159,177,139,181,67,15,91,38,194,119,240,233,238,113,176,82,185,280,175,83,151,274,297,265,281,278,191,147,213,88,8,43,263,142,259,285,16,193,206,101,115,172,42,65,57,260,227,163,201,164,123,23,71,36,184,49,48,134,170,103,14,267,166,270,186,275,243,294,146,273,28,187,96,282,35,162,2,214,293,189,118,110,109,72,231,77,76,208,250,283,249,127,143,299,4,56,89,182,229,114,50,60,271,124,223,141,5,98,179,55,86,94,216,17,40,255,196,226,79,22,246,149,295,122,74,237,32,171,156,37,13,24,121,46,261,90,212,25,11,199,117,63,34,269,205]","25","arrowright","false","15"
"","38","canvas-keyboard-response","26","73244","0.0-17.0-0.0-0.0","arrowleft","[276,120,186,294,298,142,8,174,182,152,155,219,132,230,218,207,206,13,128,260,154,240,33,215,38,79,18,292,162,286,12,228,50,115,114,216,146,111,209,34,180,113,94,60,119,129,143,299,214,234,87,141,179,71,248,23,264,208,0,254,131,262,197,257,246,126,164,30,277,24,278,158,27,101,124,32,185,2,109,282,92,200,220,5,22,90,202,269,123,171,82,265,51,280,147,225,93,81,201,46,70,6,210,96,29,40,244,86,31,272,290,263,181,193,295,266,76,10,261,63,205,239,161,75,138,145,289,84,203,287,14,37,224,213,160,296,149,106,222,122,159,28,135,235,41,188,279,191,232,42,69,80,284,105,167,237,153,238,99,88,293,3,61,89,134,59,190,74,184,156,163,68,297,11,256,166,273,121,268,172,15,274,133,44,283,144,192,85,62,43,229,57,223,4,242,36,95,83,140,211,221,195,64,100,39,53,137,97,45,54,226,231,281,255,26,194,157,25,170,7,1,212,168,72,67,78,48,55,183,243,107,130,245,258,285,288,165,102,175,66,173,236,110,291,253,198,251,108,259,196,270,16,65,127,73,91,77,169,118,98,21,176,177,20,104,271,125,247,136,116,204,58,49,150,267,187,112,35,189,19,249,9,103,252,227,17,52,241,117,148,275,250,47,139,199,178,151,217,233,56]","20","arrowleft","true","16"
"","1400","canvas-keyboard-response","27","76293","0.0-18.0-0.0-0.0","arrowright","[187,275,200,168,296,283,165,254,175,52,114,113,78,5,129,236,21,203,84,106,45,282,99,255,206,180,209,293,10,262,70,41,242,125,299,46,231,279,137,72,166,153,112,222,217,247,51,85,289,63,25,174,277,22,219,239,55,107,66,126,35,232,131,56,149,250,118,292,88,249,132,11,266,215,198,87,42,268,264,20,95,151,162,144,298,233,75,4,221,169,188,128,142,138,58,270,15,89,181,77,228,59,12,163,124,192,297,245,211,50,116,280,248,68,218,227,71,130,115,30,16,272,60,202,287,167,208,127,290,150,86,33,220,109,141,62,147,67,26,83,234,123,32,258,136,54,48,224,281,237,74,28,29,143,225,182,190,119,256,194,3,201,24,226,263,49,186,23,216,246,96,146,172,27,196,103,260,2,197,91,193,204,207,31,6,9,156,185,161,288,195,179,155,61,273,213,37,17,122,191,8,284,36,94,243,176,108,34,269,189,140,57,199,39,93,276,252,177,159,97,295,178,139,267,14,44,244,64,257,259,160,170,38,100,13,73,235,105,92,294,229,223,110,265,152,69,90,261,40,133,111,79,278,164,7,241,80,157,158,274,253,212,210,205,120,238,53,148,184,19,76,81,1,214,173,183,145,82,0,47,271,18,171,104,285,134,65,154,230,291,43,240,101,286,98,102,251,117,121,135]","15","arrowright","true","17"
"","3492","canvas-keyboard-response","28","81461","0.0-19.0-0.0-0.0","arrowright","[206,169,207,228,291,171,2,22,223,261,192,133,44,244,167,174,14,20,131,110,32,203,279,71,61,194,49,82,241,218,127,112,268,283,239,45,251,219,68,56,262,220,150,232,146,98,21,5,83,16,247,297,202,163,172,296,48,46,8,186,67,222,265,159,76,180,242,80,155,136,40,201,160,125,269,263,96,135,55,36,62,13,106,255,181,138,18,111,52,284,226,183,184,224,95,271,118,139,58,100,272,70,258,34,210,74,287,177,78,88,147,84,59,116,109,214,30,77,113,64,108,209,90,200,158,87,185,278,24,293,168,81,212,53,92,89,11,120,97,124,31,266,7,230,47,41,170,107,73,39,148,248,267,54,144,132,215,134,140,252,290,149,33,233,66,264,19,115,188,178,250,114,105,4,273,197,282,79,196,246,151,281,94,37,63,191,15,3,213,137,275,128,289,129,245,204,143,198,208,126,211,205,119,238,123,121,85,38,35,27,298,189,237,57,253,72,280,117,93,277,103,173,161,235,26,99,102,42,142,65,285,249,236,190,195,274,145,182,227,292,0,6,141,104,276,217,51,243,157,17,60,229,91,260,29,179,9,25,165,75,23,43,122,257,153,221,69,10,176,295,166,294,270,175,164,152,187,28,154,86,156,240,130,286,1,299,259,231,199,254,225,288,256,234,50,216,162,193,12,101]","10","arrowright","true","18"
"","886","canvas-keyboard-response","29","84037","0.0-20.0-0.0-0.0","arrowleft","[280,276,44,277,23,37,222,149,213,40,237,203,145,112,223,62,271,82,88,234,200,2,193,56,249,238,175,179,137,226,260,281,83,128,30,86,3,110,214,187,28,287,219,0,108,172,284,143,13,266,51,197,206,229,163,29,15,74,189,283,4,138,48,80,248,113,118,109,282,39,32,142,156,191,267,72,61,25,165,245,157,95,253,258,20,201,8,94,57,198,120,161,236,220,158,79,240,46,87,47,60,211,153,122,242,34,207,123,84,289,150,168,22,275,218,105,68,6,298,297,254,199,299,268,107,65,241,184,231,167,194,252,209,58,53,230,121,174,131,96,295,148,16,35,130,176,278,124,273,41,45,154,244,31,270,52,182,135,114,265,139,250,159,251,99,272,183,170,173,81,43,232,27,208,233,129,132,162,164,115,262,64,228,126,7,243,186,21,117,89,101,119,24,55,26,63,50,217,91,215,151,192,133,285,141,160,177,1,12,181,152,257,104,49,78,103,73,196,264,224,18,210,17,77,296,294,147,93,127,178,185,255,286,11,54,140,134,116,204,188,274,146,246,171,14,102,144,85,70,202,216,125,180,67,42,92,288,256,261,97,269,9,33,111,75,235,279,166,292,90,247,69,290,5,98,190,66,205,259,136,221,195,10,263,36,225,155,239,76,106,169,293,59,227,100,212,38,71,291,19]","5","arrowright","false","19"
