"view_history","rt","trial_type","trial_index","time_elapsed","internal_node_id","response","nodesOrdering","cliqueSize","correctResponse","presentationNumber","correctnessOfResponse"
"[{""page_index"":0,""viewing_time"":1049}]","1049","instructions","0","1057","0.0-0.0","","","","","",""
"","363","canvas-keyboard-response","1","10428","0.0-1.0-0.0-0.0"," ","[258,91,7,244,194,40,26,84,185,10,237,270,5,229,264,97,68,12,54,178,248,268,152,221,252,98,18,214,188,175,124,275,71,187,122,56,199,34,76,123,147,111,154,296,55,291,144,245,234,233,48,170,162,119,256,121,47,179,120,21,283,274,262,86,82,69,263,288,225,278,117,13,28,161,217,216,156,62,59,22,279,102,227,135,14,218,159,272,118,192,89,37,197,177,8,243,186,146,151,282,15,223,212,85,0,116,204,215,271,241,261,88,104,67,184,297,43,112,265,115,45,211,209,72,66,78,77,276,103,51,206,242,230,239,226,172,50,96,125,101,203,183,235,201,200,165,32,246,31,128,158,33,295,139,6,219,52,75,109,260,257,148,42,74,129,231,181,114,236,189,60,87,105,106,222,132,99,17,281,107,253,27,224,249,163,250,254,180,2,133,292,176,142,11,220,196,94,4,83,25,30,3,95,157,208,191,46,207,164,20,57,213,190,286,193,289,41,113,65,81,38,9,145,70,166,198,53,36,280,155,267,171,126,150,39,284,29,294,232,174,130,269,266,1,93,247,167,80,153,24,143,173,259,100,160,182,79,35,240,64,19,16,195,273,90,299,228,251,138,141,293,149,127,73,290,92,131,108,277,285,23,110,298,137,44,202,205,169,58,136,140,134,168,61,287,255,63,210,49,238]","100","arrowright","0",""
"","2913","canvas-keyboard-response","2","20539","0.0-1.1-0.1-0.1"," ","[271,8,264,52,29,157,193,84,228,102,151,79,101,263,175,32,212,284,11,60,258,74,243,298,110,294,250,182,109,261,134,210,217,70,224,17,47,150,0,68,252,276,285,192,117,186,51,259,174,255,72,278,118,75,10,95,98,50,220,53,107,153,166,123,25,233,76,81,290,96,33,287,91,140,64,6,208,26,269,239,297,292,13,185,237,125,92,171,23,262,104,63,71,5,219,48,274,198,126,42,141,78,138,130,94,266,172,160,144,100,112,7,227,89,4,83,248,226,45,65,295,62,268,163,105,136,279,18,133,283,43,148,88,177,164,267,54,204,139,221,201,242,46,296,241,229,1,288,149,238,203,20,121,14,129,31,223,293,142,260,161,209,253,21,200,180,173,120,66,49,187,280,211,256,291,196,277,59,167,146,246,55,57,257,273,19,170,240,272,108,116,254,197,73,286,236,147,85,251,207,232,176,245,15,191,181,86,215,58,282,222,115,35,169,9,80,27,122,40,106,38,37,162,183,159,195,103,202,156,234,131,82,132,289,158,218,190,61,145,93,128,30,113,216,225,143,24,165,87,299,178,44,127,154,3,22,56,265,28,12,235,194,247,206,124,230,137,155,39,213,179,270,67,199,281,119,214,244,184,189,41,34,205,77,16,152,135,114,111,99,275,69,231,36,168,97,90,249,2,188]","100","arrowright","0",""
"","1750","canvas-keyboard-response","3","28296","0.0-1.2-0.2-0.2"," ","[163,4,242,111,126,198,177,214,88,31,238,135,0,294,165,97,15,107,208,258,201,211,275,10,237,292,27,232,228,119,286,297,101,30,12,274,120,14,60,280,13,254,164,89,291,49,114,18,269,172,51,72,85,118,78,191,160,137,293,67,236,128,8,220,182,112,240,161,197,234,6,95,249,225,84,156,186,178,150,252,52,40,166,7,261,277,233,188,193,82,231,55,149,68,262,109,110,143,133,19,37,168,210,147,83,248,47,99,204,223,281,23,142,183,255,42,1,56,189,33,24,140,285,93,96,122,196,200,192,216,180,206,44,212,3,74,98,132,34,265,213,58,295,283,202,153,279,190,43,154,152,69,203,76,267,131,57,251,22,16,250,227,243,108,130,276,174,36,260,50,263,199,141,38,35,247,115,194,117,173,148,155,104,179,146,124,169,116,28,105,151,48,218,272,139,256,138,91,45,171,80,241,79,17,125,59,176,64,268,63,46,86,244,127,229,235,26,70,136,167,94,102,219,209,246,187,92,32,121,221,282,230,145,66,129,259,270,144,287,290,87,81,278,25,103,271,157,159,298,54,296,9,158,175,195,73,257,299,62,71,284,2,185,239,162,226,61,205,20,264,273,29,100,207,217,170,75,288,222,253,266,184,215,181,123,39,113,289,5,224,11,106,90,21,65,245,53,134,41,77]","100","arrowright","0",""
"","2664","canvas-keyboard-response","4","35684","0.0-1.3-0.3-0.3","arrowright","[271,260,167,141,142,102,23,243,140,266,32,175,212,82,92,28,5,244,44,283,17,295,194,34,107,66,188,59,245,155,163,211,21,239,248,164,282,237,256,132,289,117,230,81,297,70,6,166,89,131,154,105,101,151,215,171,199,68,119,291,9,231,190,204,228,162,98,33,120,181,137,58,74,290,85,185,97,160,286,15,292,275,169,156,49,240,281,193,87,80,227,18,31,176,65,72,139,86,129,94,121,62,202,78,133,64,56,2,210,293,224,216,170,251,252,261,219,153,43,238,25,178,112,7,109,223,39,174,250,67,203,213,96,10,284,276,83,37,125,189,51,179,116,111,88,8,233,207,147,38,40,183,278,264,61,226,235,76,298,16,149,241,73,274,55,53,177,299,35,30,221,108,182,143,127,218,173,197,187,294,144,138,71,152,265,26,191,209,270,24,253,206,136,236,14,255,122,146,77,269,145,257,249,234,114,22,118,180,161,165,20,148,4,159,3,172,280,287,130,258,214,150,42,268,104,91,60,232,36,168,13,54,57,84,135,99,134,288,229,247,263,110,47,90,217,1,19,126,222,192,157,225,48,273,267,195,296,52,198,0,200,106,29,11,115,124,220,242,41,196,95,279,246,123,100,113,50,259,186,75,45,63,93,12,103,184,79,128,158,262,201,277,69,208,272,254,285,46,27,205]","100","arrowright","0","true"
"","1684","canvas-keyboard-response","5","39220","0.0-2.0-0.0-0.0","arrowleft","[190,39,209,214,100,277,168,94,240,53,255,75,229,36,118,185,241,103,288,52,252,6,245,192,253,153,8,69,249,99,81,44,268,163,224,205,140,297,174,177,231,235,12,93,17,186,216,263,144,110,129,35,109,3,33,47,157,261,175,138,237,220,158,89,9,191,181,165,271,189,139,259,106,107,121,84,16,51,67,244,184,26,182,29,204,120,179,193,38,37,156,246,133,251,92,0,269,250,114,43,124,200,66,108,11,82,128,90,135,96,23,281,112,25,142,287,80,226,213,86,242,176,280,289,78,162,173,145,260,137,230,21,5,211,222,210,290,126,299,169,206,254,217,183,227,79,32,54,221,146,28,215,91,228,95,85,72,58,65,20,59,148,219,46,117,98,295,170,234,40,236,97,101,150,239,223,267,77,187,292,13,180,197,122,31,115,147,111,151,1,14,64,141,10,167,22,296,102,18,198,4,155,238,166,212,262,63,62,71,50,294,298,225,202,264,203,257,232,258,34,105,265,248,275,286,104,41,57,270,293,68,131,199,83,285,243,283,196,88,273,7,56,284,279,159,61,48,272,119,2,161,208,87,45,154,116,30,266,134,291,125,256,24,278,282,194,276,74,218,136,60,19,132,127,195,70,247,160,42,152,172,123,207,15,130,188,171,76,143,149,27,164,113,73,233,274,201,49,55,178]","95","arrowleft","1","true"
"","1289","canvas-keyboard-response","6","42444","0.0-3.0-0.0-0.0","arrowleft","[78,55,261,90,127,44,72,82,215,76,156,98,257,298,185,150,117,47,145,260,240,106,184,202,279,75,274,219,1,242,73,169,54,49,237,269,235,249,176,56,26,97,81,162,283,193,209,161,282,190,239,259,112,195,11,12,245,70,225,157,191,212,222,59,192,138,93,153,7,289,65,168,124,299,45,252,281,200,253,58,108,66,68,194,229,139,199,3,187,264,74,111,256,114,27,223,182,294,17,0,13,226,5,272,4,129,99,268,18,35,178,86,15,57,189,48,141,104,71,113,286,140,154,246,84,123,227,244,121,188,109,147,120,183,144,213,100,22,69,285,296,96,277,217,119,149,126,248,64,231,85,133,171,208,173,29,198,53,21,180,6,51,284,292,271,115,166,247,136,152,155,31,37,238,8,275,175,160,164,116,151,280,159,243,204,67,14,122,135,32,207,95,181,211,291,91,103,19,163,270,16,276,23,205,83,250,172,228,220,28,148,52,297,10,33,266,63,80,24,267,262,20,206,41,278,177,293,60,165,234,214,230,203,79,142,40,254,131,130,25,50,9,170,232,295,87,137,255,46,102,39,30,263,62,258,241,107,186,179,218,201,89,146,110,236,273,128,92,43,216,125,221,210,197,77,224,251,42,290,167,88,101,132,143,118,94,158,233,2,265,287,105,61,196,134,38,34,174,288,36]","90","arrowleft","2","true"
"","1546","canvas-keyboard-response","7","47422","0.0-4.0-0.0-0.0","arrowleft","[287,222,176,198,208,55,95,205,36,164,152,16,285,108,196,38,179,135,241,274,167,74,186,178,83,131,250,217,128,138,97,270,206,244,210,20,298,188,249,146,251,226,254,263,114,252,158,68,143,225,47,190,173,102,293,50,187,27,214,129,233,101,195,148,121,151,64,87,67,88,237,37,267,71,112,22,212,86,30,32,45,259,216,52,139,53,277,81,56,61,295,171,286,231,242,21,281,115,117,2,150,6,132,282,29,48,160,51,118,175,70,294,238,207,268,159,90,204,230,26,136,94,288,163,183,9,39,203,14,109,278,192,283,137,154,106,166,264,1,257,266,4,279,28,58,124,228,78,82,145,120,42,234,156,248,19,223,236,299,189,194,46,240,125,0,172,243,209,96,69,289,77,219,280,126,181,144,153,224,200,23,63,92,290,62,169,227,123,218,265,3,260,221,75,262,60,165,272,291,57,140,103,253,130,7,89,239,258,105,8,271,84,127,157,11,59,33,110,199,177,255,10,193,99,174,211,191,184,246,91,5,111,297,12,284,119,104,133,202,107,245,113,80,147,93,34,65,76,296,155,256,182,149,85,40,122,215,66,197,98,161,116,25,15,168,18,54,141,73,185,170,275,292,44,79,31,35,276,220,235,229,24,13,162,134,43,100,41,232,273,17,269,213,247,180,201,49,72,142,261]","85","arrowleft","3","true"
"","1355","canvas-keyboard-response","8","51739","0.0-5.0-0.0-0.0","arrowleft","[21,112,26,267,230,145,3,33,202,280,253,127,229,228,78,44,282,297,116,103,108,71,122,11,167,243,219,238,207,154,57,192,48,38,125,128,237,198,68,34,174,209,292,35,215,184,105,54,272,93,90,75,172,157,22,88,249,199,109,211,239,194,166,183,94,134,274,7,28,205,276,14,293,182,173,58,83,171,25,8,265,217,60,162,190,165,281,242,0,264,148,24,82,13,66,132,52,170,290,298,246,87,64,27,248,222,110,259,169,283,59,201,130,61,133,277,2,73,142,72,89,43,144,287,244,76,106,36,100,9,208,241,220,53,65,138,99,247,294,12,288,197,114,4,203,107,218,269,136,216,115,181,113,69,6,245,187,79,137,23,56,117,139,262,32,147,91,143,273,135,175,39,234,102,250,41,213,120,10,180,123,31,164,81,178,196,63,119,289,188,177,225,179,240,5,299,206,279,17,152,210,278,266,74,104,30,151,286,146,254,18,284,204,46,124,263,232,161,226,295,221,95,160,70,258,37,98,223,47,163,85,121,268,77,285,200,126,296,51,189,40,19,20,233,149,191,153,97,49,111,231,275,16,159,29,158,255,291,212,150,129,252,45,251,185,155,193,15,168,186,260,55,96,118,235,101,131,1,176,271,80,214,257,42,141,92,236,67,195,227,86,62,84,261,140,256,156,50,270,224]","80","arrowleft","4","true"
"","1609","canvas-keyboard-response","9","57034","0.0-6.0-0.0-0.0"," ","[71,118,75,117,121,188,15,216,280,28,89,193,49,233,45,107,157,281,123,263,54,113,158,18,73,141,90,44,20,238,162,235,111,226,143,64,203,147,228,222,251,115,169,275,276,35,265,211,100,138,52,131,156,186,5,98,132,80,103,65,229,87,274,224,177,284,202,82,122,151,212,272,269,298,219,93,213,144,192,178,146,70,225,282,95,187,249,198,296,3,214,243,242,86,38,1,6,119,136,4,209,254,148,180,234,165,277,10,154,173,91,230,61,145,190,179,109,140,12,172,205,142,258,291,134,245,101,32,288,170,128,207,106,126,96,137,278,175,236,68,299,267,120,174,57,290,266,135,94,262,289,130,114,17,286,163,104,252,195,133,56,13,171,253,196,160,260,153,250,67,279,77,63,295,33,150,39,210,261,40,127,259,183,0,246,206,283,83,231,23,88,176,50,159,204,11,241,26,256,78,27,69,41,271,76,181,166,37,182,16,232,66,7,108,227,102,223,167,8,72,31,9,81,55,255,84,60,24,42,273,105,285,29,201,30,220,191,155,25,14,248,129,62,34,2,239,294,237,46,161,124,184,79,74,36,268,240,217,264,112,99,257,189,116,292,92,43,297,247,168,59,21,110,218,125,208,53,47,58,149,244,200,215,139,185,197,287,194,85,22,48,293,152,199,97,221,164,270,51,19]","75","arrowright","5",""
"","1141","canvas-keyboard-response","10","61670","0.0-6.1-0.1-0.1"," ","[170,5,118,176,291,105,185,51,19,95,146,228,192,235,130,283,128,166,63,183,209,93,263,219,259,69,68,107,164,132,279,247,211,197,260,1,133,106,15,50,9,157,109,86,248,152,264,81,116,23,80,44,37,151,21,29,121,250,138,110,165,210,85,3,177,98,100,167,190,34,140,299,122,204,237,126,77,24,8,102,25,154,22,160,49,223,131,41,2,30,292,20,282,239,287,147,262,59,96,136,266,277,238,108,26,48,222,178,104,213,271,251,79,60,265,172,66,111,94,194,153,65,267,53,255,234,45,240,171,295,145,278,181,88,57,123,231,56,218,161,52,124,169,274,134,70,280,199,202,73,205,115,272,10,11,143,201,92,249,16,101,180,220,182,112,216,286,233,189,215,289,135,179,242,99,28,293,232,214,173,54,198,162,55,6,84,76,195,298,288,252,253,275,32,17,268,141,139,212,149,284,208,38,163,4,91,174,270,12,78,46,7,58,82,97,273,129,83,159,40,296,281,196,13,0,87,114,276,227,119,294,90,61,117,62,186,150,168,148,156,71,225,31,261,221,297,35,184,158,246,18,224,155,203,39,42,64,229,47,200,193,33,206,120,241,245,244,254,74,256,236,113,207,43,188,269,217,127,137,72,36,175,103,75,226,89,187,243,14,125,290,285,258,230,142,191,257,144,27,67]","75","arrowright","5",""
"","6778","canvas-keyboard-response","11","71452","0.0-6.2-0.2-0.2","arrowleft","[75,149,47,87,292,221,118,57,11,104,72,60,28,275,8,242,162,299,132,189,39,284,30,198,46,91,271,248,254,58,233,243,167,9,18,291,109,175,250,106,267,41,148,274,282,204,228,286,26,107,61,220,23,218,135,252,31,100,210,83,196,190,281,2,5,176,112,298,35,185,62,70,225,262,219,48,290,193,146,92,216,90,188,283,195,296,6,127,154,117,16,202,169,14,183,134,42,145,1,187,257,200,82,102,277,29,294,59,3,179,37,212,231,245,50,295,239,236,153,150,180,25,178,279,99,138,206,227,211,27,161,259,40,217,7,111,223,94,4,246,234,261,155,285,126,222,52,13,81,213,186,144,208,19,230,73,140,74,289,114,226,119,54,38,158,78,65,142,24,20,197,207,63,191,0,17,80,272,238,77,89,247,64,137,215,86,113,232,177,79,278,253,258,263,124,237,115,76,105,22,123,67,265,163,56,287,241,130,151,34,147,182,280,55,199,143,174,170,93,269,171,116,209,125,159,164,12,201,49,168,172,268,103,88,71,21,156,173,110,244,229,214,44,224,160,139,36,98,288,108,131,194,157,101,66,152,84,166,96,43,51,95,133,205,32,141,128,97,69,264,129,45,10,85,203,256,297,136,270,260,192,165,266,53,68,251,276,121,120,293,240,33,122,181,184,15,273,249,235,255]","75","arrowright","5","false"
"","2579","canvas-keyboard-response","12","76145","0.0-7.0-0.0-0.0"," ","[103,66,248,189,204,127,184,5,269,77,11,113,146,168,96,214,193,254,8,32,22,94,88,55,155,197,217,145,118,86,43,186,278,218,126,16,46,150,188,111,156,149,295,185,287,271,211,98,249,137,178,48,280,17,142,130,39,45,3,49,27,133,252,13,4,219,262,116,62,212,298,92,238,57,129,296,89,246,64,208,268,203,136,70,132,257,245,292,25,102,67,83,258,237,190,159,288,282,231,264,54,38,210,199,259,299,176,140,6,293,59,107,234,281,73,222,74,35,135,84,221,160,207,138,242,72,201,106,112,283,243,157,124,279,274,97,265,294,173,134,225,37,198,9,53,163,235,270,15,175,141,91,65,285,139,29,226,42,26,158,273,153,58,260,47,10,266,241,250,277,284,194,76,30,261,34,41,174,95,21,191,0,233,179,286,213,78,240,123,187,80,119,161,205,180,216,2,1,87,162,263,206,202,227,230,170,104,200,100,239,272,69,28,169,51,50,18,192,128,81,143,93,209,101,115,182,144,75,253,223,40,36,289,171,147,152,167,165,195,290,247,232,122,181,24,224,251,229,114,131,267,14,177,172,109,12,121,166,154,23,105,90,215,33,236,164,56,148,183,68,228,255,196,7,275,117,256,60,244,99,31,79,291,52,297,85,110,19,82,220,108,63,71,61,120,151,276,20,44,125]","70","arrowleft","6",""
"","1766","canvas-keyboard-response","13","80095","0.0-7.1-0.1-0.1","arrowleft","[176,261,199,169,60,242,116,22,26,204,290,255,282,252,164,215,90,230,91,268,65,167,51,120,166,292,68,28,74,1,257,238,154,184,264,171,70,178,2,86,136,280,289,148,185,298,193,145,276,5,129,286,207,254,191,41,25,157,46,36,103,93,221,119,240,297,44,175,165,82,85,201,234,150,138,131,248,15,79,87,130,189,122,217,76,241,183,47,12,133,283,232,143,190,235,211,4,225,162,222,80,291,265,112,73,135,181,251,64,71,52,16,45,299,258,197,266,159,273,260,6,180,210,236,127,205,34,3,137,115,126,220,294,245,10,106,152,196,226,0,200,110,128,214,69,139,33,98,105,149,182,147,40,287,278,67,253,61,97,216,113,156,55,269,146,72,250,63,23,24,206,151,123,89,203,288,155,177,50,132,160,96,37,188,186,8,19,218,256,267,295,229,271,49,29,213,228,223,208,277,78,39,83,279,43,293,35,100,168,48,27,111,233,95,212,198,174,237,284,163,53,140,231,21,246,270,227,9,158,88,125,109,14,274,124,153,195,13,144,141,20,75,173,92,275,84,263,57,121,296,285,17,239,259,11,247,30,66,114,38,219,170,142,249,224,62,99,107,134,7,81,209,32,244,187,117,101,56,59,161,192,172,94,31,58,281,179,202,104,108,272,243,194,262,18,102,77,118,42,54]","70","arrowleft","6","true"
"","3610","canvas-keyboard-response","14","91981","0.0-8.0-0.0-0.0","arrowleft","[205,289,175,184,210,169,51,119,35,294,12,31,109,93,105,4,218,193,28,179,177,98,1,148,172,154,107,20,189,252,265,155,233,116,297,94,246,102,26,67,298,63,65,86,163,78,10,288,2,104,143,47,145,255,122,96,3,209,144,87,79,38,201,192,108,173,112,101,268,40,182,248,33,257,113,39,162,21,186,85,128,230,75,214,5,100,64,299,82,185,13,49,73,7,141,262,19,9,83,242,45,204,118,267,253,249,202,228,0,260,237,251,55,52,239,158,117,160,208,16,225,91,127,279,76,103,286,125,187,223,211,74,14,284,195,254,131,269,44,266,129,157,140,276,168,194,176,17,236,241,99,120,263,134,273,121,54,222,232,72,8,152,32,261,281,217,30,226,227,77,130,180,196,282,147,50,181,111,278,135,229,164,178,42,159,23,203,216,11,247,243,110,80,234,219,6,174,287,238,123,271,81,150,296,212,66,88,258,70,207,60,259,132,115,18,280,90,291,56,200,136,153,142,240,25,183,295,190,235,197,114,191,68,29,15,275,126,264,161,71,198,290,69,244,58,61,224,84,97,270,285,41,199,215,48,124,22,149,167,137,293,46,24,37,277,156,138,188,89,221,43,272,206,36,95,283,166,245,27,231,274,53,170,34,151,59,133,165,139,213,256,146,62,292,171,106,220,57,92,250]","65","arrowleft","7","true"
"","13526","canvas-keyboard-response","15","115170","0.0-9.0-0.0-0.0","arrowleft","[262,243,98,175,57,1,236,159,28,120,107,281,283,30,109,255,53,206,261,291,2,163,220,276,104,112,259,228,147,22,158,25,217,68,298,187,82,188,138,27,213,168,18,154,193,110,151,26,35,42,192,250,266,223,33,100,0,294,79,230,52,39,9,258,209,164,144,73,148,200,124,229,17,234,58,59,24,280,65,165,191,115,287,31,34,69,197,178,282,103,74,78,290,97,12,166,95,134,8,269,211,99,61,49,32,142,235,248,16,183,77,55,94,122,184,85,60,299,155,257,279,293,7,264,127,70,106,130,136,102,241,132,202,232,212,167,271,88,145,161,75,71,83,242,152,170,275,174,117,141,222,108,47,171,286,80,219,129,51,114,89,131,101,225,285,251,207,224,214,92,93,96,296,62,274,67,64,246,169,179,249,263,125,227,153,90,135,37,216,297,20,221,268,45,113,181,41,21,218,252,6,245,247,76,173,273,128,208,160,233,84,194,50,72,13,126,289,186,14,56,81,140,182,139,149,63,196,48,189,11,210,238,23,105,288,162,177,180,295,203,198,111,119,190,231,150,36,176,172,240,270,244,66,256,5,254,265,54,292,137,87,239,195,253,215,278,237,199,157,133,29,272,3,116,4,15,204,123,10,284,146,91,43,86,46,44,260,121,201,205,156,226,277,38,118,40,143,185,19,267]","60","arrowright","8","false"
"","4977","canvas-keyboard-response","16","124425","0.0-10.0-0.0-0.0","arrowright","[80,287,108,43,29,245,252,210,167,246,177,61,1,19,116,180,262,199,227,169,148,75,99,292,261,263,17,238,175,299,49,298,25,146,67,271,34,96,114,9,215,152,82,192,46,60,174,234,27,144,138,120,42,141,247,121,197,157,207,151,31,217,191,202,275,259,87,195,101,135,154,76,137,216,106,11,69,44,89,147,270,62,48,73,66,94,103,28,193,4,166,126,21,140,153,128,196,53,95,198,12,129,59,30,230,127,74,79,220,38,139,233,133,2,150,58,111,168,249,190,269,32,92,122,6,162,185,91,232,222,286,264,211,14,22,260,86,123,225,176,98,10,56,118,272,104,110,131,16,55,267,15,57,7,236,221,72,212,179,280,23,283,113,119,8,289,125,200,145,52,88,100,276,294,205,184,172,71,68,243,256,213,274,285,160,84,93,35,293,183,41,165,204,257,181,159,142,33,237,228,36,143,290,163,203,155,253,90,284,255,178,297,277,47,85,102,81,26,134,115,188,164,248,156,83,109,266,20,63,278,3,51,265,18,105,187,194,149,219,132,112,242,64,244,0,239,161,235,214,254,5,182,251,54,258,201,173,281,226,39,77,279,208,107,206,223,24,218,209,45,268,130,186,170,282,291,231,158,189,78,50,288,117,65,224,37,296,136,241,229,250,295,171,70,273,13,240,97,124,40]","55","arrowright","9","true"
"","5161","canvas-keyboard-response","17","132093","0.0-11.0-0.0-0.0","arrowleft","[248,238,291,60,96,287,134,247,26,74,32,77,213,204,290,70,95,29,38,208,199,283,55,203,252,9,40,33,88,41,228,156,292,93,214,105,48,161,191,217,193,177,155,174,195,272,260,175,47,111,192,249,153,211,73,39,184,122,222,114,67,78,242,198,256,117,130,289,205,116,61,276,241,124,69,36,59,150,57,34,294,82,178,119,259,295,126,163,35,263,132,151,224,154,169,180,76,27,14,235,52,44,245,146,107,269,182,140,298,16,65,251,64,142,7,185,58,102,296,236,101,131,172,100,145,165,104,160,25,299,103,181,271,221,37,227,72,84,127,115,286,188,79,282,138,270,158,80,66,20,24,223,5,244,110,170,207,261,31,268,10,87,243,42,162,189,284,253,106,6,206,167,196,15,8,18,219,49,157,56,148,275,218,246,139,11,215,128,197,265,210,75,278,30,68,187,62,231,71,240,90,141,99,229,45,113,274,92,109,232,293,43,121,94,176,97,0,257,171,225,267,144,54,220,149,233,22,4,258,129,120,166,135,273,12,152,50,137,2,297,164,23,264,51,125,83,209,85,183,108,230,262,173,118,91,1,147,266,63,280,81,216,13,133,194,136,288,53,19,28,179,285,226,168,200,254,143,46,279,3,202,112,159,98,237,17,201,277,190,255,250,89,186,212,86,234,239,21,281,123]","50","arrowright","10","false"
"","2903","canvas-keyboard-response","18","137490","0.0-12.0-0.0-0.0","arrowright","[230,202,85,186,184,160,128,32,197,166,265,298,267,116,69,177,91,296,269,67,159,154,88,223,187,150,173,136,56,213,133,24,124,90,288,30,276,270,94,63,157,76,28,54,44,14,285,164,73,42,80,98,64,191,58,40,260,247,61,262,227,234,86,245,20,254,291,253,134,175,108,221,182,110,178,72,229,74,47,278,132,18,52,268,129,155,210,138,9,293,162,83,226,87,235,13,125,214,258,181,0,121,77,107,112,241,212,246,200,275,50,272,33,6,17,294,289,167,11,70,46,203,264,198,45,119,41,38,122,299,114,146,3,39,142,237,75,179,65,180,139,228,131,236,250,89,192,286,297,143,101,208,66,62,111,274,165,255,185,99,82,170,261,151,206,140,7,242,183,5,220,53,252,279,71,266,189,174,10,282,60,287,156,292,49,188,31,172,215,22,8,97,149,78,103,204,171,12,207,26,120,93,244,153,225,130,263,239,145,219,144,271,190,57,115,4,222,248,27,256,199,168,102,216,29,137,273,148,84,34,249,37,161,51,240,176,118,79,290,218,109,196,95,113,217,36,100,211,141,1,105,48,169,277,233,127,21,96,283,117,15,2,243,55,147,257,106,231,232,295,123,163,68,92,238,126,152,251,23,193,281,224,104,35,195,158,16,19,194,259,280,135,43,59,81,209,205,25,284,201]","45","arrowleft","11","false"
"","4328","canvas-keyboard-response","19","145186","0.0-13.0-0.0-0.0","arrowleft","[204,125,90,212,180,145,192,263,116,58,148,129,295,185,50,75,241,127,158,279,243,37,294,207,109,87,64,164,59,297,15,34,19,155,189,12,235,138,119,40,55,57,65,88,228,106,124,191,144,137,275,257,78,132,236,224,38,200,1,95,167,168,108,36,39,272,227,99,262,205,6,104,181,17,247,30,287,171,113,289,232,282,174,208,140,73,195,234,285,130,47,33,165,214,268,242,83,121,175,292,157,249,43,246,118,266,269,244,291,135,280,22,265,51,202,20,141,210,251,5,250,271,216,41,277,190,147,293,177,92,240,35,52,29,218,114,71,77,63,261,7,260,81,134,169,27,46,283,172,136,89,28,239,255,159,146,120,142,211,193,166,206,203,217,96,176,131,238,107,42,94,183,84,284,296,31,299,105,102,97,179,258,178,18,194,45,32,153,70,26,230,53,61,21,160,86,209,252,245,197,223,273,231,13,215,2,48,112,85,3,68,222,122,98,278,54,162,123,248,79,288,76,201,225,16,237,0,9,213,270,256,80,264,60,93,103,10,267,115,82,24,133,4,182,152,74,139,11,23,274,163,184,126,101,199,110,8,226,188,154,156,66,173,128,221,67,161,56,14,143,150,69,44,49,111,187,259,276,229,233,198,151,170,91,117,149,254,62,253,25,286,100,298,186,72,220,219,290,281,196]","40","arrowright","12","false"
"","2248","canvas-keyboard-response","20","150733","0.0-14.0-0.0-0.0","arrowright","[79,289,48,217,75,42,170,165,205,89,253,171,209,198,132,74,136,145,155,3,202,91,160,115,17,158,141,197,265,10,243,262,220,26,54,228,236,292,117,111,114,90,110,104,193,16,85,105,140,98,180,161,6,176,76,29,55,287,246,59,229,213,38,190,67,233,103,27,162,194,204,241,298,23,185,271,199,230,259,245,288,281,94,32,184,147,235,179,61,247,166,116,113,277,135,123,148,263,270,51,163,36,101,254,290,62,173,46,96,9,258,60,143,73,249,208,109,41,273,5,58,49,68,28,150,43,182,224,280,45,238,186,11,256,80,149,153,108,252,201,77,25,64,178,142,95,191,133,22,299,175,261,97,248,278,128,255,187,172,294,218,99,214,221,152,127,8,239,157,130,189,283,19,107,112,188,284,12,266,225,139,156,286,129,50,52,293,137,93,92,177,169,240,121,269,82,118,63,138,124,53,219,84,279,144,223,267,21,164,274,87,86,282,65,100,196,66,146,20,275,250,211,44,215,159,24,81,285,216,234,13,151,1,34,102,37,210,232,131,0,134,83,15,18,71,295,231,257,14,7,206,296,167,47,31,120,297,222,260,35,174,39,2,183,168,106,237,33,126,72,264,125,40,226,251,192,207,119,122,88,276,78,56,242,154,200,203,70,272,268,227,69,244,30,195,291,4,57,181,212]","35","arrowleft","13","false"
"","17368","canvas-keyboard-response","21","172615","0.0-15.0-0.0-0.0","arrowright","[190,120,140,220,66,24,145,5,211,42,54,2,141,72,92,1,26,202,248,196,20,138,14,110,252,186,10,218,47,119,288,184,147,139,149,55,191,280,82,198,262,192,53,168,297,98,105,251,127,294,241,57,233,261,48,177,215,278,95,77,90,228,250,137,197,178,41,279,189,116,75,295,64,238,214,173,194,299,212,76,253,65,254,61,172,96,85,113,30,126,259,213,237,179,271,267,44,204,266,167,298,282,160,15,22,270,232,289,183,88,236,35,94,255,170,240,18,125,176,129,275,68,208,201,93,239,134,206,142,43,122,174,27,231,199,58,243,293,200,121,244,0,187,111,166,73,152,226,71,45,80,257,260,109,124,290,40,230,128,157,86,207,242,21,19,79,36,235,150,296,277,101,49,115,9,219,274,263,37,210,221,38,99,164,153,12,146,89,39,159,273,117,163,181,131,216,229,165,112,33,180,67,234,104,246,123,31,281,144,227,107,69,284,247,81,108,258,223,23,46,264,51,209,272,143,83,87,205,70,224,114,106,256,156,84,169,276,182,32,13,16,193,162,203,161,136,34,217,265,100,185,52,158,245,62,17,4,285,7,118,195,155,151,25,132,133,97,175,59,268,291,222,102,188,103,8,283,130,50,78,286,29,171,6,154,28,249,74,60,148,11,287,292,91,56,3,225,269,63,135]","30","arrowright","14","true"
"","3286","canvas-keyboard-response","22","178349","0.0-16.0-0.0-0.0","arrowleft","[47,101,286,250,205,203,108,158,234,57,68,283,260,272,207,86,282,12,33,40,198,254,195,3,255,204,179,48,141,126,149,104,61,133,80,129,294,115,58,299,65,87,238,25,136,117,225,7,261,72,67,152,50,298,242,135,120,174,221,229,181,273,34,196,161,74,132,163,164,128,224,232,59,31,46,54,45,88,1,78,167,265,97,206,38,98,148,96,233,85,122,4,175,60,288,144,240,109,142,276,140,137,92,297,251,262,191,157,121,39,176,290,194,51,127,125,162,69,147,256,292,178,0,102,211,13,113,22,89,222,236,226,52,150,249,165,274,138,91,180,79,14,84,43,134,187,228,270,145,293,35,75,197,15,277,230,70,83,100,182,2,183,193,143,275,16,94,267,30,216,153,26,264,219,252,177,21,247,32,9,210,19,170,37,289,66,173,29,17,146,131,239,281,212,107,227,151,231,64,62,223,18,186,296,155,23,200,160,235,119,159,105,271,73,244,209,123,139,184,253,124,36,269,202,6,20,278,114,172,220,110,284,214,71,77,192,106,245,217,118,8,201,93,111,156,154,171,5,41,188,291,169,243,27,99,287,190,24,76,185,241,189,42,280,63,28,130,266,55,53,10,285,168,279,213,215,116,103,82,44,218,208,49,56,199,259,257,95,112,268,166,246,263,258,90,295,237,248,81,11]","25","arrowleft","15","true"
"","2120","canvas-keyboard-response","23","186382","0.0-17.0-0.0-0.0"," ","[80,226,258,3,158,7,212,37,278,168,252,36,247,173,244,116,143,238,234,52,87,103,62,64,34,165,109,88,127,260,67,6,98,69,246,222,274,171,283,107,50,155,32,113,287,125,219,275,273,250,270,201,181,281,269,89,153,209,229,78,146,177,193,102,162,218,39,253,186,282,54,225,265,166,195,27,180,228,106,91,145,223,63,84,126,280,286,217,245,96,72,104,216,123,138,61,213,85,256,297,68,148,271,191,141,41,254,174,236,26,164,20,185,182,232,25,187,292,57,221,4,40,111,214,5,100,79,28,207,65,220,144,184,44,272,139,285,204,23,29,131,42,2,35,14,239,49,10,264,268,51,99,136,289,198,128,82,81,21,176,288,58,55,251,142,77,45,0,161,9,71,160,293,163,154,130,124,257,19,8,94,112,196,152,206,83,208,255,11,90,237,115,137,299,140,133,118,183,122,197,203,150,175,33,235,189,73,192,215,86,167,48,59,97,290,1,224,243,74,120,276,200,248,30,18,76,134,199,259,46,294,129,38,108,132,295,262,210,241,202,169,233,92,179,277,114,188,296,172,105,240,15,66,291,284,121,249,190,24,22,178,261,119,170,194,211,16,17,75,227,231,53,151,110,31,266,95,149,242,117,298,230,13,263,60,279,267,156,93,157,101,135,205,12,70,43,56,159,147,47]","20","arrowleft","16",""
"","1262","canvas-keyboard-response","24","193691","0.0-17.1-0.1-0.1"," ","[111,159,216,90,273,194,266,43,199,48,130,215,14,98,277,205,290,145,299,79,222,276,228,84,162,157,297,39,209,282,24,108,168,192,129,211,105,190,82,214,258,229,29,38,117,186,169,99,92,245,293,115,141,249,225,201,156,112,59,279,152,114,138,57,21,47,120,278,296,289,137,176,37,27,16,150,144,264,154,184,253,1,0,93,226,102,259,179,19,77,263,5,224,64,285,232,109,291,230,52,113,213,50,197,200,160,294,100,280,44,235,271,288,272,153,72,97,212,227,7,133,135,101,178,116,67,69,167,244,94,143,46,15,78,2,71,221,118,207,174,250,136,217,240,252,219,139,196,248,8,187,255,107,55,166,242,151,262,103,155,3,146,6,191,142,119,9,66,198,247,31,251,54,89,4,286,132,140,298,73,49,181,22,149,287,246,11,177,267,28,127,231,254,63,53,124,268,238,123,292,61,91,122,241,80,193,125,70,163,257,265,76,35,202,237,58,87,189,42,170,173,158,284,26,20,45,36,18,32,223,183,62,204,40,104,171,65,208,126,95,206,269,218,41,188,88,236,283,81,147,295,74,128,148,83,10,256,13,17,165,172,34,281,261,68,180,25,12,106,274,56,243,110,175,239,220,86,30,51,131,195,161,96,121,210,60,23,260,233,234,134,164,275,185,85,75,270,203,33,182]","20","arrowleft","16",""
"","1320","canvas-keyboard-response","25","200436","0.0-17.2-0.2-0.2","arrowleft","[291,227,201,6,132,238,273,107,263,176,272,278,54,50,101,196,96,189,260,143,224,110,86,279,94,262,168,117,60,126,65,147,295,82,217,212,203,193,163,270,15,134,70,175,114,130,22,131,2,12,20,152,290,32,118,116,7,229,146,46,92,68,58,222,184,4,44,294,200,33,8,89,157,235,180,297,243,26,21,248,221,264,172,233,30,187,24,104,165,61,156,292,142,197,268,120,59,183,149,261,76,186,124,127,298,167,73,265,55,286,53,64,36,123,79,246,84,93,277,10,25,145,195,218,88,188,237,138,230,66,269,62,185,211,148,72,48,166,160,161,281,47,38,216,106,198,220,100,164,80,125,228,190,274,257,240,234,170,288,13,158,115,5,113,179,214,236,102,140,75,254,39,18,245,153,275,108,231,77,3,282,57,215,56,283,174,250,242,41,207,141,287,151,136,276,239,226,162,171,67,97,95,99,135,284,43,91,299,1,293,155,232,40,178,128,208,150,34,266,35,199,192,28,194,249,74,119,205,78,173,177,258,182,296,209,144,223,202,121,31,52,213,247,16,63,17,253,37,105,159,90,45,51,129,98,219,259,267,169,285,139,42,111,251,83,241,23,191,280,206,29,181,103,289,69,85,137,109,27,225,71,0,154,133,19,14,49,11,252,112,271,210,81,244,255,87,204,122,9,256]","20","arrowleft","16","true"
"","3374","canvas-keyboard-response","26","209297","0.0-18.0-0.0-0.0","arrowright","[293,31,36,235,261,14,210,244,289,253,107,65,61,125,201,273,243,258,266,164,220,52,192,200,216,48,231,19,17,221,96,122,217,174,40,166,147,188,229,237,35,199,121,41,259,249,211,112,260,131,4,15,204,123,103,227,152,21,262,167,161,170,88,225,156,6,224,285,99,139,269,77,219,191,215,291,184,242,62,279,180,72,276,286,205,127,29,11,202,294,67,268,207,87,89,34,206,275,82,58,176,57,26,55,37,54,75,295,100,73,5,223,135,71,51,90,153,158,208,189,228,160,115,264,86,45,287,263,3,284,95,292,1,33,146,172,194,138,79,105,69,288,46,193,81,132,209,49,108,222,59,151,66,230,162,2,169,190,124,218,196,44,133,25,299,10,117,106,9,92,143,70,16,149,120,134,168,23,178,203,27,238,114,129,280,144,56,24,93,240,101,39,226,198,97,163,150,187,177,84,118,64,83,274,185,278,256,12,195,140,297,257,197,76,28,43,250,251,137,157,18,128,110,283,111,254,68,42,232,282,130,104,186,271,13,119,145,270,179,245,183,98,91,296,53,171,154,102,38,20,47,247,236,63,78,214,290,181,248,241,298,22,7,136,173,0,8,277,233,85,155,60,182,74,281,113,109,213,234,141,126,116,239,32,255,175,246,148,267,50,30,142,252,265,165,272,80,212,94,159]","15","arrowright","17","true"
"","9257","canvas-keyboard-response","27","223252","0.0-19.0-0.0-0.0","arrowright","[252,284,9,180,114,103,196,267,299,166,147,79,157,1,25,139,160,213,89,265,223,154,54,290,66,2,38,208,144,209,117,83,23,86,105,4,280,297,70,98,26,0,125,190,56,269,212,259,36,143,97,138,214,205,285,81,255,183,187,60,161,243,30,123,82,171,109,231,95,76,41,87,78,85,12,90,244,246,294,58,271,275,115,141,99,140,137,201,176,182,172,21,235,93,168,268,11,22,149,40,121,174,120,136,216,153,51,42,92,104,14,17,112,204,44,292,250,241,237,111,107,277,295,131,135,228,215,65,156,225,151,127,31,200,298,59,155,8,188,20,129,50,100,45,197,195,6,150,162,27,178,101,253,52,227,206,229,230,169,189,186,142,69,192,199,46,232,96,53,210,251,80,72,219,122,33,163,218,293,224,170,108,73,84,276,133,177,270,63,264,68,3,240,248,32,296,29,47,287,74,62,286,179,220,279,165,159,130,77,164,48,254,257,35,7,49,10,193,181,175,148,110,118,281,211,13,128,234,126,34,91,39,242,102,24,119,233,260,37,173,146,18,28,55,283,282,263,274,256,64,16,226,145,194,134,261,247,71,272,132,167,67,236,222,203,207,217,278,5,184,15,198,106,202,289,249,116,239,266,291,258,158,288,75,61,152,94,245,113,221,185,57,19,238,43,191,262,88,273,124]","10","arrowright","18","true"
"","2472","canvas-keyboard-response","28","229509","0.0-20.0-0.0-0.0","arrowleft","[255,196,96,204,25,172,167,50,179,61,80,288,174,275,216,205,147,114,18,162,155,171,36,284,91,206,253,37,59,152,102,211,276,270,115,53,46,29,178,42,47,103,10,273,296,70,57,39,239,257,134,74,169,160,22,164,254,146,98,165,1,86,21,120,17,79,159,35,69,259,218,274,105,3,157,106,65,141,73,9,184,161,197,4,118,250,109,285,15,101,247,58,290,230,264,56,127,258,295,81,24,136,177,151,193,77,142,48,265,93,14,95,89,263,129,224,123,299,202,188,289,154,246,83,281,181,278,242,41,117,207,85,249,23,243,82,201,222,32,5,208,84,266,68,30,260,210,51,233,138,158,104,116,245,277,235,238,63,223,90,185,186,110,232,200,220,192,20,126,279,140,251,99,38,111,170,107,128,269,291,72,271,88,52,194,150,282,191,28,199,261,40,240,287,166,190,100,183,119,262,241,227,148,236,97,49,213,228,55,67,62,237,149,221,7,2,34,195,87,76,231,292,225,112,66,214,182,132,294,71,229,212,272,153,139,219,64,12,168,267,252,8,286,176,31,143,19,133,248,268,125,78,226,297,13,26,45,124,173,131,189,0,121,244,283,156,54,113,92,175,60,217,43,33,135,163,187,203,215,145,234,44,16,11,122,293,180,6,27,298,94,75,280,137,130,256,198,144,108,209]","5","arrowleft","19","true"
