"view_history","rt","trial_type","trial_index","time_elapsed","internal_node_id","response","nodesOrdering","cliqueSize","correctResponse","presentationNumber","correctnessOfResponse"
"[{""page_index"":0,""viewing_time"":1243}]","1243","instructions","0","1244","0.0-0.0","","","","","",""
"","1379","canvas-keyboard-response","1","4315","0.0-1.0-0.0-0.0"," ","[32,249,187,147,265,71,69,287,267,277,170,114,181,244,283,206,294,28,103,125,205,133,21,257,87,131,70,54,235,248,31,298,282,73,82,45,207,116,266,62,192,89,227,25,245,38,27,296,127,288,233,202,1,86,55,26,154,88,292,234,161,110,178,40,151,121,144,188,24,256,12,80,270,182,221,222,174,149,124,72,186,8,136,18,199,3,41,123,217,43,6,279,46,9,113,50,240,130,190,37,66,139,83,76,193,261,250,255,100,106,4,153,172,197,102,209,262,284,212,164,105,258,158,167,231,146,196,7,42,219,49,98,60,53,23,150,33,36,236,226,225,200,280,59,39,285,194,65,101,179,271,137,122,111,247,119,175,104,48,15,173,228,201,204,242,254,213,118,67,138,264,2,128,108,140,290,189,142,120,10,237,95,162,291,180,230,252,52,165,44,281,94,203,160,16,215,159,185,166,57,51,74,141,276,5,145,224,269,29,148,126,97,19,232,223,210,11,155,239,30,169,92,260,195,99,58,156,75,251,112,211,241,273,289,0,85,218,143,208,168,117,272,274,253,176,191,63,198,78,79,157,152,90,263,259,171,81,293,220,214,216,20,132,47,286,184,163,35,297,278,22,68,91,64,109,134,246,243,299,77,61,13,268,177,275,295,107,93,56,96,129,17,84,115,34,238,229,183,135,14]","100","arrowleft","0",""
"","398","canvas-keyboard-response","2","6411","0.0-1.1-0.1-0.1","arrowleft","[226,211,107,240,225,23,113,299,268,2,147,125,248,173,70,86,150,272,145,38,197,130,108,141,41,127,223,103,188,158,166,278,155,251,57,281,171,263,140,195,29,134,65,31,276,14,256,206,290,58,91,269,67,25,135,75,94,266,50,161,242,285,298,179,183,74,12,167,99,250,202,185,77,294,98,238,204,227,64,284,177,79,92,245,96,82,131,100,186,152,279,120,162,232,207,219,129,151,287,121,215,229,13,293,210,111,110,280,234,118,297,288,21,201,222,260,4,61,254,11,184,271,10,172,190,128,36,153,182,286,60,85,63,59,88,203,258,133,45,7,253,217,255,105,83,115,46,243,213,170,104,218,28,40,214,102,246,8,126,54,257,20,123,112,273,37,32,200,142,124,178,148,33,193,244,76,157,295,119,216,224,35,17,154,196,34,87,19,66,189,231,296,275,30,78,0,69,139,90,117,48,165,15,156,97,176,277,168,138,199,93,292,282,180,265,116,291,9,42,56,228,5,132,81,62,262,3,39,220,71,52,137,198,159,73,235,80,249,163,106,230,136,241,101,26,237,53,16,221,169,6,181,208,174,114,18,233,47,261,259,191,24,212,84,144,44,194,27,49,55,22,122,95,160,72,146,252,264,1,109,68,192,187,274,89,283,239,51,247,43,236,164,267,143,289,270,205,149,175,209]","100","arrowleft","0","true"
"","400","canvas-keyboard-response","3","8491","0.0-2.0-0.0-0.0"," ","[77,238,111,182,123,239,43,49,8,88,126,152,230,234,34,104,97,223,282,268,9,50,154,275,32,157,10,109,122,194,212,107,148,125,140,62,75,197,2,244,288,26,177,103,115,255,180,195,33,1,273,250,136,124,100,227,143,254,129,5,299,171,210,293,137,276,70,160,120,14,58,225,45,153,27,145,22,0,163,147,199,84,187,135,3,235,118,251,296,11,114,151,241,213,7,264,242,102,192,208,81,248,277,224,94,83,172,48,247,184,253,64,130,165,54,95,116,229,146,290,82,289,188,256,108,142,73,179,261,78,185,98,106,131,218,71,80,128,117,101,203,204,15,263,24,214,169,19,42,99,86,189,260,222,173,269,55,176,66,215,68,274,63,206,226,181,21,110,92,67,37,127,292,87,270,138,205,193,52,141,295,211,161,201,31,202,200,178,168,74,272,209,243,133,156,257,183,220,96,287,61,262,191,150,35,164,265,217,20,23,38,90,139,113,79,59,121,258,144,198,47,30,281,44,155,46,190,119,12,283,105,236,267,51,89,65,219,286,158,285,36,29,221,16,297,291,132,228,149,246,13,231,28,186,41,40,6,233,167,240,284,93,298,280,207,278,134,60,249,232,39,17,279,196,237,271,159,4,266,216,294,56,25,85,53,69,174,57,162,166,72,91,259,76,252,245,175,170,18,112]","95","arrowright","1",""
"","431","canvas-keyboard-response","4","10619","0.0-2.1-0.1-0.1","arrowright","[17,100,275,68,236,128,196,261,272,152,39,122,180,198,242,74,113,91,155,10,197,209,277,77,229,259,173,276,53,258,268,133,5,104,267,51,119,222,163,183,190,28,274,54,294,170,262,76,83,224,244,92,214,89,157,127,132,293,57,62,240,162,93,271,1,273,35,65,288,47,296,95,94,193,264,286,107,42,174,144,69,248,256,45,201,233,108,134,188,58,166,126,243,251,211,181,266,167,221,86,295,0,234,207,71,27,213,235,9,138,72,20,237,168,159,26,217,24,6,282,124,59,116,287,228,189,139,200,148,291,204,111,73,263,37,171,247,67,131,226,14,8,154,223,257,22,285,123,269,143,245,84,205,99,50,41,218,187,265,246,11,114,253,25,232,2,239,149,137,210,23,12,115,199,160,186,270,153,252,219,292,136,215,249,283,85,7,172,289,109,255,75,146,60,225,176,175,105,192,64,79,87,106,88,165,40,299,112,202,254,177,33,32,182,55,141,101,103,151,230,13,147,169,29,142,179,135,44,125,231,96,82,208,118,290,212,130,206,194,129,36,52,250,46,161,4,31,284,195,19,281,34,102,63,70,216,150,3,56,121,117,43,90,145,21,184,61,156,280,66,220,81,278,16,120,227,97,98,78,49,178,18,279,15,164,191,48,38,30,203,298,297,238,140,260,241,80,185,158,110]","95","arrowright","1","true"
"","579","canvas-keyboard-response","5","12891","0.0-3.0-0.0-0.0"," ","[98,110,176,132,10,51,223,241,222,8,108,167,266,277,70,92,182,273,124,106,175,39,83,165,160,109,260,171,139,2,253,79,141,131,191,127,86,214,169,263,209,13,156,40,26,63,46,297,71,274,42,206,118,34,66,82,281,285,287,137,33,208,114,14,133,22,126,219,236,280,294,240,58,81,41,262,6,120,150,220,19,257,202,213,100,204,159,282,20,194,184,62,12,228,18,197,261,67,149,50,154,187,105,59,233,286,52,199,284,134,210,255,226,198,299,104,31,234,16,148,242,170,60,246,151,142,268,207,97,162,279,61,7,85,17,188,119,161,9,138,248,244,230,53,87,221,69,57,135,205,84,189,203,4,265,140,181,115,36,269,0,5,249,65,125,264,25,155,237,200,146,232,113,111,291,295,101,164,177,211,47,15,23,292,229,21,174,30,267,225,121,193,185,99,11,45,251,54,90,217,95,136,94,239,195,93,158,216,153,73,144,3,275,227,35,190,278,166,80,78,91,247,68,192,38,107,130,215,77,288,238,186,123,76,296,163,256,183,96,55,290,258,48,271,43,212,180,168,145,270,64,224,128,196,272,122,112,157,254,178,44,298,201,179,293,24,103,276,147,32,56,116,243,102,252,245,129,27,88,231,37,72,289,29,74,1,173,117,152,75,143,89,250,172,49,283,28,259,218,235]","90","arrowleft","2",""
"","369","canvas-keyboard-response","6","14939","0.0-3.1-0.1-0.1","arrowleft","[173,125,2,253,154,240,28,33,207,15,246,22,74,121,202,64,248,68,222,59,105,216,241,114,267,20,195,201,297,128,225,109,259,62,10,257,134,56,175,72,13,189,273,50,17,149,77,219,45,7,111,193,8,182,113,171,42,90,29,249,242,11,150,180,282,124,140,159,126,84,135,296,37,81,218,231,54,183,203,261,85,262,6,57,198,119,16,176,165,115,146,265,191,290,83,136,144,86,233,88,44,53,91,235,12,196,205,250,3,40,19,9,148,34,285,79,251,206,287,215,169,255,263,272,95,46,26,107,30,226,31,245,229,288,93,168,266,244,23,51,247,138,155,133,164,147,256,151,5,18,234,102,87,36,1,162,41,214,204,123,270,131,279,280,35,190,161,110,224,129,271,67,0,208,66,238,82,139,163,284,48,71,108,179,152,122,39,60,142,283,293,32,78,75,167,212,292,158,275,217,177,112,101,258,92,157,27,89,143,291,286,278,274,187,21,192,197,14,76,96,243,210,132,199,194,174,4,130,186,220,269,116,58,69,24,172,221,120,181,127,117,228,49,230,63,232,223,160,55,188,299,178,65,104,277,47,185,237,239,118,98,137,94,227,264,213,141,281,209,298,61,52,106,80,260,100,211,73,294,295,200,252,145,236,289,25,276,38,170,184,166,97,156,153,268,70,99,43,254,103]","90","arrowleft","2","true"
"","424","canvas-keyboard-response","7","17051","0.0-4.0-0.0-0.0"," ","[156,118,13,195,258,36,121,173,125,137,11,3,140,64,33,94,44,108,225,17,214,208,204,6,97,102,191,253,10,138,187,215,241,31,55,110,238,111,270,260,264,261,22,132,183,146,165,282,46,245,123,122,19,290,243,263,212,206,139,145,69,129,268,249,178,71,292,66,120,28,194,63,297,95,27,255,18,25,37,262,230,124,244,257,228,54,80,160,61,248,43,105,7,78,209,170,106,283,207,293,223,8,266,198,20,91,107,279,221,181,30,41,144,70,229,157,237,98,35,1,273,180,222,147,82,103,164,284,74,16,169,89,246,72,247,192,224,23,84,205,213,53,267,286,242,62,250,287,167,68,176,127,40,148,188,236,38,151,136,177,126,172,274,114,77,285,150,200,14,201,254,295,269,199,21,75,52,88,86,119,45,197,298,272,296,130,220,182,280,217,276,190,226,168,143,179,216,81,288,60,234,275,186,259,189,219,112,29,83,42,142,175,26,2,49,115,51,85,149,113,99,158,289,240,24,227,79,271,202,92,47,291,104,161,0,134,159,193,15,231,32,12,133,93,211,90,59,50,96,153,34,9,4,162,252,109,48,87,141,184,116,5,128,239,67,152,57,265,131,100,256,163,251,56,294,73,299,185,171,154,135,277,281,235,101,232,233,76,210,166,278,155,39,218,58,196,117,65,174,203]","85","arrowleft","3",""
"","229","canvas-keyboard-response","8","18955","0.0-4.1-0.1-0.1"," ","[113,235,62,41,17,56,287,45,154,158,238,83,121,80,233,295,103,69,255,261,133,212,27,188,78,38,241,231,107,64,122,206,168,118,283,288,67,211,236,28,140,50,276,239,149,192,104,13,159,218,166,126,32,7,46,92,250,294,135,237,280,256,150,249,77,186,274,141,22,277,124,148,91,96,243,194,48,291,1,145,153,125,167,2,15,94,57,285,86,193,143,299,240,142,181,116,8,5,196,266,95,112,246,207,269,272,131,106,79,88,119,185,228,115,10,162,102,123,175,160,152,58,68,136,157,254,179,19,210,263,59,268,108,101,49,282,36,127,271,253,182,84,76,204,229,105,72,209,4,275,187,18,3,85,109,40,264,224,292,139,111,66,16,54,262,6,173,216,214,98,242,12,180,213,257,70,289,55,43,34,30,97,31,82,161,279,33,144,20,184,298,252,137,73,281,293,65,129,47,278,120,208,203,183,258,146,60,273,174,37,128,63,226,259,198,169,14,219,44,165,132,244,195,265,71,270,21,42,130,247,0,89,234,35,164,245,232,114,90,29,11,53,197,23,52,138,151,217,147,117,296,230,199,87,74,189,227,286,220,170,93,39,200,110,260,225,202,297,99,75,171,201,25,61,284,163,248,155,205,156,191,172,178,215,290,134,222,9,81,177,267,51,24,100,176,26,223,251,190,221]","85","arrowleft","3",""
"","400","canvas-keyboard-response","9","21035","0.0-4.2-0.2-0.2","arrowleft","[7,287,154,249,293,138,262,130,27,88,46,60,257,183,43,244,15,267,48,67,50,221,147,181,294,136,106,286,251,246,224,209,36,178,63,245,232,24,156,55,4,223,37,161,32,247,51,58,14,290,179,21,124,217,210,19,174,40,30,201,149,89,31,102,233,163,5,242,105,157,135,220,112,8,127,203,85,116,288,87,297,219,253,81,0,159,173,191,77,189,254,103,285,241,16,111,190,229,35,283,198,226,97,17,83,250,184,25,13,259,129,47,80,39,222,28,238,234,72,170,114,74,145,296,118,117,2,271,134,272,168,206,109,146,90,197,187,96,143,196,270,277,99,225,218,273,228,235,274,29,120,268,38,41,292,119,175,34,166,195,269,167,1,284,182,282,33,125,98,211,11,169,131,215,177,258,64,26,155,148,139,70,188,213,153,132,208,199,205,237,260,231,73,255,207,266,142,126,6,240,69,94,62,279,121,227,158,84,176,275,243,122,79,281,123,100,57,204,52,82,164,280,200,65,152,49,291,61,261,110,214,256,289,165,140,239,137,216,115,92,56,252,236,108,86,265,12,44,141,91,23,162,186,18,276,78,71,185,10,95,230,45,76,54,278,151,22,194,75,101,20,298,150,128,93,263,160,248,3,171,133,192,104,193,212,144,9,107,66,53,264,180,113,172,42,68,295,202,59,299]","85","arrowleft","3","true"
"","804","canvas-keyboard-response","10","23515","0.0-5.0-0.0-0.0","arrowleft","[157,143,298,22,148,291,55,122,220,204,19,186,74,235,202,14,108,212,232,273,279,209,176,206,170,161,262,254,228,67,9,167,241,224,90,42,93,39,150,178,194,260,183,128,156,52,174,168,123,49,190,40,18,87,54,181,133,192,208,189,134,27,34,289,196,158,258,17,103,247,217,261,283,164,266,152,203,242,43,80,239,61,137,1,264,139,199,159,231,129,36,188,45,146,25,297,229,75,223,215,230,171,227,201,142,267,285,38,35,272,162,238,144,4,7,56,253,111,219,193,2,3,263,155,81,97,207,112,107,5,50,187,284,292,222,245,165,274,116,114,79,256,99,69,26,70,149,198,154,282,271,180,265,83,151,130,98,244,16,299,221,173,121,76,100,51,44,281,46,20,58,296,84,115,105,259,109,197,59,269,118,179,30,73,185,131,250,21,251,113,169,147,213,191,177,8,160,287,86,94,270,140,91,255,226,218,85,31,145,68,246,64,104,172,200,216,24,136,237,120,89,135,205,33,60,12,288,252,88,29,126,293,182,240,243,166,141,77,28,214,257,0,63,286,184,125,57,101,37,249,110,132,78,23,6,276,106,233,295,13,15,268,138,294,95,211,195,275,47,48,175,127,11,236,163,41,124,277,71,248,153,117,62,10,82,96,92,32,53,234,72,290,102,280,119,278,66,225,210,65]","80","arrowleft","4","true"
"","900","canvas-keyboard-response","11","26091","0.0-6.0-0.0-0.0","arrowleft","[151,123,168,7,260,250,78,170,9,144,258,215,134,119,284,222,293,264,58,76,155,213,84,1,122,26,60,54,25,2,127,299,153,125,295,106,112,189,20,183,50,283,5,228,230,10,194,296,61,298,248,135,142,107,14,275,191,211,174,244,89,47,265,6,36,141,48,40,199,261,98,281,71,31,150,104,181,85,179,79,154,90,266,175,102,128,193,93,270,49,62,63,34,252,247,3,184,87,278,235,201,74,32,269,44,0,75,198,140,268,197,255,57,24,290,72,203,240,95,97,81,163,113,94,262,73,152,17,133,239,99,86,167,27,132,177,243,294,136,195,33,8,55,216,285,139,15,120,88,204,45,182,180,196,297,185,156,161,176,29,126,287,114,35,16,208,237,227,42,232,165,38,19,12,267,66,105,225,121,210,101,30,272,124,172,118,149,186,280,117,68,289,276,109,46,166,110,59,274,229,238,254,11,251,158,178,173,143,67,137,192,23,69,53,205,171,220,82,188,221,13,4,39,51,218,65,148,108,292,209,217,145,200,246,241,37,234,273,91,22,64,256,226,233,52,259,77,214,159,83,138,56,187,279,80,212,202,223,43,103,271,219,288,18,242,92,190,96,206,41,116,130,224,282,277,231,115,21,28,207,253,286,263,131,291,146,157,249,245,257,160,147,164,169,70,129,162,236,111,100]","75","arrowleft","5","true"
"","799","canvas-keyboard-response","12","28571","0.0-7.0-0.0-0.0","arrowleft","[188,157,176,286,209,195,290,247,261,140,129,124,90,142,86,240,40,147,158,260,32,133,145,149,27,8,64,231,132,55,41,291,190,58,123,113,17,282,233,236,230,119,19,62,283,284,191,137,221,167,105,288,44,59,80,54,294,121,39,114,91,82,180,171,279,153,224,229,278,14,232,163,154,66,281,164,72,31,193,16,34,78,43,49,96,117,87,120,37,12,85,273,239,265,103,168,295,292,28,262,202,213,187,0,75,285,211,169,203,267,194,234,141,214,196,251,237,280,56,122,139,81,178,52,92,1,50,208,296,77,250,101,70,189,162,88,18,108,204,200,48,10,74,151,61,166,69,184,42,60,156,46,272,258,274,179,299,243,249,146,104,118,201,136,155,225,9,6,53,127,227,264,252,198,186,11,107,174,276,254,197,245,242,175,246,293,89,192,126,253,148,29,112,161,218,248,255,95,256,38,2,47,116,160,152,7,159,259,226,73,207,83,270,266,297,257,94,128,26,65,138,223,150,76,25,181,51,67,110,100,35,125,106,102,99,219,205,244,185,212,287,271,115,97,30,238,3,57,68,24,220,98,298,289,63,144,20,268,215,135,277,199,173,22,15,84,71,235,222,241,5,182,206,93,217,228,263,210,23,4,134,269,172,165,177,275,45,13,216,143,79,36,111,170,21,183,131,109,33,130]","70","arrowright","6","false"
"","784","canvas-keyboard-response","13","31035","0.0-8.0-0.0-0.0","arrowright","[160,270,180,136,58,62,26,50,269,109,254,185,255,252,87,40,273,140,17,281,221,163,38,192,162,149,84,181,237,244,115,288,233,53,164,256,37,197,159,212,19,279,157,102,142,71,258,44,147,47,6,79,286,139,94,101,230,297,66,251,266,4,30,268,107,235,257,211,176,76,239,218,272,127,216,67,77,130,245,280,298,171,154,104,145,200,242,103,289,97,18,34,253,98,20,291,70,65,57,138,143,158,284,208,204,99,114,49,260,55,223,75,299,23,186,11,188,213,148,36,198,89,92,231,250,229,124,264,14,202,261,265,283,128,224,112,292,263,191,69,46,161,119,166,234,174,113,121,199,7,183,156,1,226,177,85,21,207,72,15,155,91,170,3,241,295,32,122,111,134,110,238,16,285,219,108,167,48,60,54,0,133,277,52,90,274,33,209,236,293,2,194,81,228,9,83,137,106,165,184,225,8,210,152,249,150,41,135,146,120,51,116,59,117,203,262,187,275,42,240,215,132,68,178,95,196,193,131,96,168,129,105,172,259,31,173,78,45,201,35,190,5,205,179,189,25,64,100,88,296,126,290,56,82,61,248,93,24,169,267,28,195,39,12,243,29,13,151,247,73,294,74,220,63,125,276,278,217,222,141,182,118,10,144,214,232,287,271,227,246,153,80,43,123,175,86,22,206,27,282]","65","arrowleft","7","false"
"","1266","canvas-keyboard-response","14","33979","0.0-9.0-0.0-0.0","arrowleft","[65,40,112,75,278,160,151,42,181,137,241,172,95,163,9,173,161,56,284,193,255,87,129,31,296,158,208,210,281,63,199,35,37,249,232,254,245,102,226,59,292,213,68,273,224,250,21,139,44,230,85,99,263,101,271,27,221,207,153,22,67,64,264,55,175,15,196,236,147,223,18,209,179,25,17,114,89,148,91,74,38,152,14,234,299,219,57,8,168,36,295,26,247,20,240,272,46,262,51,203,287,217,277,19,73,229,197,243,270,144,52,275,198,204,190,195,228,16,205,239,50,200,285,297,298,171,167,62,252,259,227,242,45,136,117,98,48,143,60,43,49,47,107,128,121,170,155,166,174,269,135,76,246,125,127,123,150,251,222,267,177,253,105,88,80,216,61,146,34,104,211,162,238,185,218,235,286,256,265,293,266,276,130,81,124,94,32,11,212,282,233,110,184,169,96,215,214,111,97,120,7,294,71,92,237,149,145,39,109,183,29,3,115,93,70,13,54,180,53,182,202,279,289,103,268,118,156,86,220,134,5,108,0,69,244,261,131,178,28,30,206,231,201,1,260,10,78,283,225,132,119,126,274,4,79,192,33,288,186,2,122,248,140,187,12,84,106,41,157,138,72,194,82,24,83,90,188,258,164,141,23,100,159,154,189,280,66,257,133,291,165,191,116,142,58,77,176,113,290,6]","60","arrowleft","8","true"
"","1901","canvas-keyboard-response","15","37547","0.0-10.0-0.0-0.0","arrowleft","[190,88,44,46,267,184,51,121,286,162,33,299,258,179,279,122,17,77,87,63,127,200,259,165,170,257,283,85,75,112,255,266,24,132,288,168,187,183,188,164,274,280,15,256,73,254,26,142,48,269,38,102,272,261,133,96,176,167,23,298,113,140,13,273,110,221,137,282,225,223,123,247,8,93,236,250,196,6,222,262,241,232,86,201,71,53,263,226,213,2,49,78,125,249,147,128,18,199,224,11,28,60,115,297,186,159,265,243,4,271,284,12,293,207,69,228,64,292,35,178,202,32,216,160,131,109,39,219,157,141,119,37,275,145,129,161,104,30,235,214,152,20,105,218,208,217,143,134,74,155,234,182,118,116,99,211,59,0,111,3,290,92,238,91,260,191,25,126,52,163,108,81,156,151,181,206,84,54,220,90,1,36,50,253,195,79,14,58,31,210,138,154,83,136,67,149,203,245,65,148,204,117,107,231,251,27,34,62,278,29,21,103,153,80,244,56,89,16,285,22,97,185,205,45,150,209,233,192,76,295,242,144,270,229,189,169,135,101,120,5,212,291,43,246,10,57,55,252,82,198,95,130,114,171,296,237,9,68,240,98,42,124,194,61,215,248,230,193,264,281,139,166,239,289,177,106,40,227,19,146,94,41,287,66,276,173,100,277,294,72,158,7,175,174,47,180,70,197,268,172]","55","arrowleft","9","true"
"","874","canvas-keyboard-response","16","40091","0.0-11.0-0.0-0.0","arrowleft","[185,121,142,297,291,167,106,194,147,239,92,38,13,196,154,100,191,223,201,218,184,125,53,123,226,30,57,116,231,240,74,238,25,73,252,48,267,273,229,236,58,257,21,114,272,241,200,1,120,0,45,234,95,216,8,281,289,189,275,197,113,172,199,171,34,87,214,68,177,83,5,269,101,146,251,93,258,266,18,155,293,295,124,221,220,169,254,164,112,296,285,12,77,55,270,280,35,180,102,162,62,245,143,47,292,136,64,141,67,207,204,282,263,195,209,96,85,212,61,178,20,19,211,250,210,54,69,60,75,23,65,230,9,2,103,88,44,287,205,14,56,192,135,110,89,170,111,203,29,108,228,150,6,290,33,126,10,63,233,161,81,79,133,227,128,268,249,283,137,247,190,160,46,156,52,215,41,109,288,138,104,279,43,259,131,168,115,78,134,127,140,208,130,225,193,119,139,99,243,186,36,84,40,242,244,76,163,80,22,255,15,27,264,86,66,50,237,118,32,72,165,17,153,94,271,159,217,176,222,183,260,187,98,4,16,82,278,148,284,261,90,37,166,107,232,276,105,11,3,265,158,122,253,174,129,219,132,42,179,70,7,151,294,277,286,71,181,144,224,59,235,28,26,145,256,51,188,39,248,173,91,206,202,246,182,175,274,213,299,31,298,117,49,97,152,262,198,149,157,24]","50","arrowleft","10","true"
"","2016","canvas-keyboard-response","17","43803","0.0-12.0-0.0-0.0","arrowleft","[282,223,26,43,22,184,29,2,155,66,226,154,182,284,265,127,271,91,118,120,181,198,6,189,10,46,13,294,63,129,204,112,179,57,207,83,241,173,162,177,269,1,96,97,3,95,245,138,44,176,235,275,74,75,60,72,36,28,205,251,126,137,88,180,203,131,237,156,121,253,146,256,178,84,153,130,191,297,117,94,258,65,53,280,147,37,78,212,194,41,166,236,54,21,140,298,295,202,276,229,263,281,139,252,289,76,25,38,132,143,260,42,15,190,9,24,105,291,81,39,124,5,199,80,90,93,0,234,49,40,215,221,248,104,299,55,240,200,244,167,274,174,100,136,233,287,103,45,228,163,222,101,92,19,165,144,58,128,34,152,67,185,210,175,264,296,195,59,70,56,98,73,8,255,30,79,82,273,220,286,201,12,109,52,48,16,266,193,169,157,292,168,68,209,213,141,216,218,135,64,161,247,183,148,272,17,246,257,159,27,250,160,116,86,238,219,290,114,133,278,192,268,50,217,196,277,4,31,61,283,142,208,20,87,99,288,242,243,225,18,107,111,125,11,224,293,33,151,214,197,227,231,145,172,115,35,134,262,187,32,261,164,188,51,285,206,23,69,106,110,186,7,249,158,89,14,150,211,230,149,108,279,119,171,267,254,259,123,170,270,113,85,232,239,122,47,102,71,62,77]","45","arrowleft","11","true"
"","997","canvas-keyboard-response","18","46491","0.0-13.0-0.0-0.0","arrowright","[180,21,81,286,12,14,195,208,200,244,270,37,163,256,153,15,147,97,44,13,243,54,279,67,187,75,232,102,131,80,241,125,245,157,1,4,123,182,103,50,70,251,165,185,299,63,277,227,293,169,139,272,64,142,193,238,109,60,2,235,263,145,56,226,58,178,249,146,132,126,3,261,69,155,124,57,120,117,186,264,246,128,274,161,129,271,203,281,173,211,287,22,17,38,114,158,221,216,19,171,230,223,168,20,84,48,297,262,253,220,16,224,237,175,52,267,190,36,23,294,31,93,111,234,68,49,104,260,149,143,214,202,292,9,33,100,83,252,78,92,159,283,209,88,106,74,276,212,47,46,6,282,136,228,258,41,45,105,98,119,0,112,141,196,201,35,72,107,197,89,239,266,18,10,162,254,181,95,172,113,189,135,183,236,295,82,198,29,273,59,51,140,65,275,116,177,134,240,194,61,215,176,210,291,133,11,121,167,280,77,217,160,179,110,32,150,156,268,164,39,199,233,43,127,222,242,130,269,144,96,86,90,166,76,42,207,247,79,218,122,62,285,296,250,154,229,101,284,290,257,85,53,255,278,87,66,25,34,115,26,138,28,91,148,219,27,248,259,191,206,108,151,288,289,225,188,231,7,73,204,118,30,298,40,213,137,205,265,24,184,152,174,8,192,170,71,94,99,55,5]","40","arrowright","12","true"
"","1319","canvas-keyboard-response","19","49483","0.0-14.0-0.0-0.0"," ","[163,132,104,178,252,297,33,143,15,118,165,42,270,63,56,150,2,49,216,14,162,232,9,204,50,144,211,245,100,160,174,149,12,45,217,235,238,122,228,146,142,256,179,222,62,40,189,19,16,21,201,293,29,151,106,141,295,93,23,261,139,188,26,166,249,288,90,94,205,61,101,78,274,76,187,169,296,289,209,145,243,223,168,281,44,60,244,8,278,32,117,237,96,214,298,113,36,241,87,154,3,167,229,37,135,224,247,103,70,233,170,121,53,39,253,182,98,251,226,207,55,203,54,125,41,120,172,266,0,105,133,13,18,248,1,79,34,267,285,255,57,116,181,95,275,73,239,68,35,210,127,258,199,221,191,195,208,269,164,81,276,134,109,192,200,161,171,51,83,220,242,153,65,58,64,130,259,52,158,152,136,27,265,112,287,291,43,264,102,196,31,271,176,155,193,110,299,292,175,254,260,197,129,85,66,173,284,30,159,236,25,138,186,69,212,234,185,263,206,213,84,279,123,290,225,240,202,128,177,4,140,126,147,86,11,114,115,137,59,280,124,82,148,180,67,107,231,75,5,108,28,277,17,92,111,10,157,99,46,20,80,119,294,156,6,198,24,257,7,77,190,215,219,97,283,194,48,262,227,89,272,286,230,72,218,38,131,22,71,273,246,250,88,282,74,268,47,91,184,183]","35","arrowleft","13",""
"","305","canvas-keyboard-response","20","51515","0.0-14.1-0.1-0.1"," ","[191,205,10,263,184,278,128,234,273,288,84,275,215,81,96,225,152,1,176,20,256,173,178,113,264,50,60,57,13,177,99,210,285,36,134,282,79,78,98,12,182,201,290,195,32,76,259,138,165,233,14,7,15,295,101,66,21,2,120,159,51,0,72,136,114,227,8,46,172,109,266,279,147,231,77,252,169,104,140,243,70,271,153,180,44,167,251,3,83,110,58,230,25,146,280,30,185,245,261,59,34,299,294,42,116,211,287,80,127,249,216,137,121,242,86,122,200,283,281,163,41,193,22,292,155,258,16,161,73,135,166,214,106,284,18,187,148,262,4,254,198,75,85,89,186,170,95,61,65,239,206,228,208,212,69,67,131,265,224,118,296,141,207,100,92,74,143,102,218,156,202,203,237,115,47,112,248,160,190,213,235,82,144,157,149,5,38,253,232,204,276,192,209,150,71,168,123,49,28,238,125,223,260,188,142,31,286,64,68,221,272,133,196,268,23,197,199,293,246,267,241,107,124,132,56,45,37,222,154,88,63,171,189,29,94,11,158,24,164,257,103,244,126,6,162,40,55,54,33,48,43,229,35,250,139,226,62,117,219,289,255,269,175,26,274,297,93,111,270,91,97,240,129,19,90,220,179,277,105,291,174,87,52,236,298,9,17,151,181,145,247,27,119,130,183,217,39,108,53,194]","35","arrowleft","13",""
"","929","canvas-keyboard-response","21","54123","0.0-14.2-0.2-0.2","arrowright","[215,78,175,253,249,181,224,128,244,94,44,187,236,296,264,42,58,262,292,272,60,269,193,38,239,97,209,150,133,258,10,130,16,69,21,103,257,285,25,251,290,232,163,0,18,207,266,135,46,120,169,30,234,45,89,256,92,178,250,216,200,123,37,180,194,148,11,196,157,109,117,119,47,56,230,283,41,162,208,219,191,54,261,284,134,228,39,252,85,160,55,198,9,113,125,188,6,274,286,64,247,140,145,8,279,275,173,29,40,210,118,205,49,137,142,114,67,294,62,214,66,104,186,115,203,79,280,226,77,237,155,291,132,217,106,166,229,81,20,27,124,245,14,82,26,144,101,57,74,86,195,168,112,248,152,197,213,171,72,93,116,201,63,32,91,273,233,293,277,204,5,278,108,1,4,161,220,154,98,189,298,84,129,3,190,289,164,240,65,95,126,174,184,136,59,225,149,295,260,185,22,182,131,13,158,15,231,143,206,33,222,172,170,88,48,288,24,127,156,105,83,76,139,53,263,281,165,176,61,287,87,99,80,265,12,68,243,282,167,36,23,73,141,34,50,242,268,159,297,151,218,75,221,19,246,31,267,211,199,43,276,110,122,146,71,227,153,17,51,235,96,259,35,107,2,102,121,28,212,70,100,52,299,238,179,138,177,183,111,202,254,241,7,270,255,192,147,223,90,271]","35","arrowleft","13","false"
"","1136","canvas-keyboard-response","22","56939","0.0-15.0-0.0-0.0"," ","[58,95,296,230,251,40,27,205,91,97,64,66,248,180,158,298,72,26,89,11,54,51,268,18,240,247,103,253,33,237,30,16,127,120,234,113,15,81,165,216,286,263,32,2,162,235,283,209,1,22,278,131,174,175,100,244,243,164,287,217,87,119,224,90,65,59,297,220,276,152,254,9,147,85,71,213,137,284,256,8,270,114,281,24,232,288,88,233,53,193,200,41,99,134,62,13,116,25,79,140,212,17,183,37,189,295,34,196,219,80,186,55,225,21,92,274,56,188,6,178,293,83,269,39,31,7,132,98,160,42,12,215,151,68,187,198,118,73,266,154,52,208,181,271,228,144,272,93,46,239,172,185,214,275,107,191,145,290,148,10,167,115,294,245,252,63,49,135,108,36,106,177,299,146,29,67,4,279,264,101,261,96,155,142,255,122,76,211,143,169,221,117,102,133,207,82,84,45,19,14,197,47,192,75,112,109,163,273,195,250,258,170,280,125,179,50,161,241,291,260,204,226,121,38,176,123,259,3,206,61,229,218,43,210,262,184,77,227,20,130,238,285,110,249,190,60,292,173,128,94,78,57,171,257,194,129,138,153,141,150,223,203,124,48,222,289,277,202,136,267,201,157,35,242,282,23,156,104,182,149,126,246,0,199,166,231,28,139,86,236,168,69,70,159,44,111,265,5,74,105]","30","arrowright","14",""
"","515","canvas-keyboard-response","23","59131","0.0-15.1-0.1-0.1","arrowleft","[279,73,170,1,225,234,259,264,168,115,100,263,286,282,117,176,138,96,76,195,27,47,248,22,244,58,163,12,14,173,151,166,228,3,16,219,247,256,131,87,221,266,107,42,252,35,268,153,72,275,93,207,136,119,157,186,182,128,40,49,34,205,287,161,84,269,210,80,110,124,183,223,184,297,285,204,8,196,123,30,202,267,241,253,226,11,103,101,36,2,33,169,41,299,162,38,298,46,85,239,187,0,116,145,216,208,53,147,245,59,233,217,190,258,133,203,94,194,201,179,164,198,220,81,130,260,295,118,271,104,43,7,192,272,113,283,230,125,148,141,120,79,160,129,199,19,146,280,70,10,296,250,55,257,243,54,175,126,31,152,88,26,227,273,229,32,75,77,66,44,134,274,294,143,209,246,255,48,222,197,249,254,242,25,105,4,158,64,90,213,172,29,142,185,193,28,178,276,238,82,23,112,181,155,67,121,21,206,171,52,5,135,211,20,51,237,132,102,292,83,200,71,265,251,9,262,106,69,108,144,150,24,224,191,6,278,180,65,15,174,86,154,281,232,50,140,215,293,284,189,56,291,45,37,188,270,290,214,149,111,109,17,62,177,159,99,165,289,122,60,236,156,137,89,288,63,91,235,240,13,261,98,74,114,127,92,218,39,18,139,97,57,95,78,231,277,167,212,61,68]","30","arrowright","14","false"
"","1202","canvas-keyboard-response","24","62027","0.0-16.0-0.0-0.0","arrowright","[142,80,238,101,125,2,277,30,122,212,154,37,253,119,258,4,77,47,261,104,53,107,25,110,75,149,172,286,22,230,256,153,152,162,174,157,72,231,240,215,91,113,3,191,289,87,147,23,287,123,10,239,131,220,254,65,86,206,285,117,74,293,73,156,205,164,208,67,192,267,7,242,143,180,278,20,158,196,272,186,36,61,133,193,150,241,79,169,219,163,57,98,12,204,92,43,144,197,21,226,296,266,187,94,179,141,295,29,18,214,282,252,263,247,249,127,297,81,121,229,44,199,126,255,78,62,70,9,235,139,159,6,31,201,35,269,222,38,136,251,200,130,118,264,51,76,298,26,189,0,108,49,161,40,237,89,14,102,203,257,93,32,5,17,198,71,52,134,24,16,68,250,58,103,275,270,82,167,13,274,260,183,56,55,259,84,146,151,248,15,283,194,213,171,111,170,299,69,228,290,188,85,218,120,224,178,140,116,265,168,181,109,138,175,234,27,106,217,276,216,233,243,155,63,60,8,221,284,288,271,280,262,291,1,268,165,83,97,128,279,42,46,190,135,115,88,50,225,166,184,294,114,64,129,90,281,195,45,39,100,273,99,105,48,244,112,95,182,236,223,148,132,202,209,66,173,137,54,96,177,210,246,232,34,19,41,245,292,211,185,207,11,227,33,160,176,124,145,59,28]","25","arrowleft","15","false"
"","1039","canvas-keyboard-response","25","64747","0.0-17.0-0.0-0.0","arrowright","[241,175,181,60,79,162,91,25,7,69,90,297,243,26,101,272,113,142,184,166,236,200,265,193,98,111,177,274,149,94,185,257,280,5,117,46,86,294,275,220,150,64,104,43,122,160,223,293,264,145,179,124,116,31,189,276,201,70,97,192,48,74,0,81,51,271,134,49,6,96,206,278,154,151,71,203,194,144,53,205,291,2,244,183,292,255,59,87,288,263,19,259,253,67,190,197,89,232,269,251,141,66,191,225,215,261,38,172,68,199,260,24,65,119,100,28,44,125,4,42,13,17,221,209,8,230,129,75,237,12,171,128,170,176,72,163,210,131,15,238,239,77,1,147,138,137,258,156,73,76,295,40,29,207,58,282,216,286,188,249,92,217,103,121,289,56,212,109,10,61,174,34,120,27,161,270,219,299,21,202,254,152,157,115,140,133,16,22,18,85,195,146,296,132,106,279,224,153,57,95,214,126,139,107,41,84,222,204,143,290,266,277,108,127,63,242,234,159,50,39,248,54,36,218,155,228,164,281,169,227,102,35,284,123,167,45,245,268,256,9,110,135,285,213,136,33,47,20,105,83,262,62,148,173,240,211,252,118,196,229,93,165,182,99,298,283,231,250,235,37,88,130,32,273,208,112,180,11,178,226,78,14,198,247,3,30,168,187,233,186,267,80,158,114,23,82,287,52,246,55]","20","arrowleft","16","false"
"","791","canvas-keyboard-response","26","67227","0.0-18.0-0.0-0.0","arrowleft","[224,245,5,186,277,251,151,9,283,273,180,64,279,202,217,249,82,188,266,169,96,108,219,1,256,92,144,19,295,271,164,248,101,197,172,195,240,296,46,97,294,234,204,43,15,196,78,26,83,243,12,124,201,20,293,110,160,42,274,297,8,33,246,40,93,48,13,263,159,60,84,211,53,258,32,185,77,79,23,49,255,147,39,290,190,166,291,241,10,85,179,36,115,62,91,216,237,206,228,187,38,230,268,116,261,66,168,70,242,231,158,28,100,14,61,16,299,139,175,145,132,141,233,103,57,95,165,11,59,221,73,298,205,52,183,285,198,126,193,174,287,107,118,6,31,272,184,200,156,209,143,37,89,182,25,58,47,239,63,232,222,133,98,4,135,71,45,292,276,119,265,229,150,129,282,278,163,250,55,94,257,18,41,81,120,161,109,194,80,192,87,0,2,270,136,252,244,178,152,149,35,226,105,259,218,102,127,214,157,121,199,27,68,29,65,254,30,88,90,208,247,76,264,75,140,113,203,189,210,74,170,125,56,207,106,286,215,123,7,213,253,280,117,267,3,69,51,227,17,176,137,131,50,114,24,289,238,225,54,146,269,148,212,155,72,134,44,34,223,288,67,177,154,181,173,111,275,128,162,99,191,138,236,171,130,262,220,284,122,153,260,142,86,104,22,235,167,112,281,21]","15","arrowright","17","false"
"","8636","canvas-keyboard-response","27","77548","0.0-19.0-0.0-0.0"," ","[91,146,180,103,280,223,285,269,154,197,54,183,1,173,26,204,57,150,89,293,169,259,123,271,48,20,289,147,161,288,5,134,261,230,145,295,157,143,281,200,279,110,70,158,249,62,0,232,117,151,41,116,56,130,283,290,222,228,240,42,126,224,81,272,15,165,287,190,276,218,155,55,22,92,138,160,136,181,189,266,194,296,135,43,106,233,40,215,159,234,27,188,149,122,50,210,33,82,191,207,102,121,59,99,8,286,247,44,137,67,187,47,29,86,125,13,112,120,78,124,111,108,205,252,176,175,31,235,87,238,101,113,217,28,107,58,132,203,16,216,278,213,208,79,267,258,237,24,166,119,144,182,64,256,100,167,97,30,71,66,2,90,211,141,98,168,6,14,229,262,178,236,254,184,298,179,75,196,172,170,299,206,174,37,231,153,264,244,270,7,9,246,46,263,84,72,10,142,195,242,273,95,163,11,38,156,17,214,148,96,19,239,85,73,76,52,74,257,265,25,36,83,109,61,32,248,114,68,260,162,105,139,88,18,220,209,21,297,152,225,292,34,127,53,251,243,140,186,80,282,221,226,4,118,219,291,131,77,65,164,12,294,198,35,133,241,171,3,93,128,253,104,268,60,129,177,69,193,94,250,201,284,49,255,23,202,185,274,245,275,51,63,192,45,199,115,277,212,39,227]","10","arrowleft","18",""
"","459","canvas-keyboard-response","28","79675","0.0-19.1-0.1-0.1","arrowright","[134,49,4,209,19,168,96,1,148,218,199,276,164,133,204,214,118,298,200,152,32,240,299,46,111,53,108,87,267,90,145,11,212,30,186,34,39,104,227,128,45,31,147,225,38,224,271,293,141,33,23,161,127,123,265,213,253,193,274,75,282,284,56,291,268,297,140,241,238,65,26,194,76,261,184,80,44,3,281,25,115,228,110,105,98,182,160,52,239,180,0,165,70,229,10,67,254,255,269,60,156,277,154,290,246,245,114,36,42,219,14,27,122,100,243,121,107,181,5,206,159,234,207,205,216,244,130,230,235,109,249,187,210,6,113,72,173,198,146,170,288,183,248,292,197,68,286,166,191,294,93,137,272,119,57,135,91,129,95,24,151,217,175,94,21,131,287,101,88,188,256,37,16,247,28,54,82,97,99,285,116,270,74,278,155,223,162,163,139,50,259,117,41,81,157,260,192,264,89,226,169,215,66,142,73,69,55,35,20,48,86,102,176,112,18,233,273,40,208,64,77,236,47,195,262,172,51,185,263,190,78,62,279,150,178,103,126,79,250,258,179,275,158,12,106,251,13,84,237,202,83,257,143,17,196,266,232,242,189,136,177,2,289,85,22,120,149,8,153,221,280,283,138,295,144,61,43,211,29,167,71,92,63,252,222,124,171,58,7,132,15,9,220,174,203,231,59,125,296,201]","10","arrowleft","18","false"
"","5315","canvas-keyboard-response","29","86667","0.0-20.0-0.0-0.0","arrowleft","[116,0,124,268,273,181,267,2,286,59,123,158,145,128,71,262,146,24,190,107,132,295,40,166,274,176,178,131,169,244,152,223,236,191,25,165,39,119,247,245,248,141,157,276,43,61,84,252,86,67,102,168,227,5,88,196,47,22,133,200,100,255,257,209,192,12,89,65,23,42,215,187,233,149,234,129,87,143,74,175,199,81,205,64,207,20,238,125,32,249,222,293,17,212,90,211,54,97,96,52,29,77,80,91,219,231,27,279,105,111,204,194,121,265,214,292,167,44,14,177,161,148,197,195,110,7,115,63,289,153,68,278,206,281,253,11,282,34,202,120,37,76,201,188,118,95,240,104,155,150,117,226,258,21,228,151,41,126,99,296,208,103,26,173,297,66,270,213,55,113,33,210,9,179,135,93,15,127,156,4,38,287,13,101,171,58,224,48,290,203,174,36,57,221,62,18,69,217,98,271,10,82,184,162,136,106,186,241,19,130,218,288,232,256,182,163,8,3,180,114,31,269,266,144,30,237,122,183,243,275,254,16,73,45,216,137,56,51,159,85,139,147,1,235,229,246,170,35,261,112,75,251,83,198,285,138,49,72,92,134,164,284,70,108,142,53,242,239,283,263,160,272,6,189,78,79,250,154,264,291,277,294,94,140,220,60,185,225,193,172,298,28,299,230,260,280,109,46,259,50]","5","arrowleft","19","true"
