[{"success":true,"timeout":false,"failed_images":[],"failed_audio":[],"failed_video":[],"trial_type":"preload","trial_index":0,"time_elapsed":77,"internal_node_id":"0.0-0.0"},{"view_history":[{"page_index":0,"viewing_time":1457},{"page_index":1,"viewing_time":774}],"rt":2231,"trial_type":"instructions","trial_index":1,"time_elapsed":2312,"internal_node_id":"0.0-1.0"},{"success":true,"timeout":false,"failed_images":[],"failed_audio":[],"failed_video":[],"trial_type":"preload","trial_index":2,"time_elapsed":2585,"internal_node_id":"0.0-2.0"},{"view_history":[{"page_index":0,"viewing_time":954},{"page_index":1,"viewing_time":155},{"page_index":2,"viewing_time":163},{"page_index":3,"viewing_time":151},{"page_index":4,"viewing_time":146},{"page_index":5,"viewing_time":158},{"page_index":6,"viewing_time":82},{"page_index":7,"viewing_time":150},{"page_index":8,"viewing_time":102},{"page_index":9,"viewing_time":135},{"page_index":10,"viewing_time":179},{"page_index":11,"viewing_time":151},{"page_index":12,"viewing_time":110},{"page_index":13,"viewing_time":159},{"page_index":14,"viewing_time":162},{"page_index":15,"viewing_time":165},{"page_index":16,"viewing_time":151},{"page_index":17,"viewing_time":131},{"page_index":18,"viewing_time":131},{"page_index":19,"viewing_time":137},{"page_index":20,"viewing_time":131},{"page_index":21,"viewing_time":317},{"page_index":22,"viewing_time":119},{"page_index":23,"viewing_time":209},{"page_index":24,"viewing_time":190},{"page_index":25,"viewing_time":139},{"page_index":26,"viewing_time":134},{"page_index":27,"viewing_time":142},{"page_index":28,"viewing_time":172},{"page_index":29,"viewing_time":138},{"page_index":30,"viewing_time":136},{"page_index":31,"viewing_time":156},{"page_index":32,"viewing_time":178},{"page_index":33,"viewing_time":158},{"page_index":34,"viewing_time":163},{"page_index":35,"viewing_time":146},{"page_index":36,"viewing_time":159},{"page_index":37,"viewing_time":159},{"page_index":38,"viewing_time":176},{"page_index":39,"viewing_time":165},{"page_index":40,"viewing_time":157},{"page_index":41,"viewing_time":151},{"page_index":42,"viewing_time":155},{"page_index":43,"viewing_time":160},{"page_index":44,"viewing_time":146},{"page_index":45,"viewing_time":119},{"page_index":46,"viewing_time":216},{"page_index":47,"viewing_time":181},{"page_index":48,"viewing_time":157},{"page_index":49,"viewing_time":156},{"page_index":50,"viewing_time":154},{"page_index":51,"viewing_time":163}],"rt":8870,"trial_type":"instructions","trial_index":3,"time_elapsed":11455,"internal_node_id":"0.0-3.0"},{"view_history":[{"page_index":0,"viewing_time":418}],"rt":418,"trial_type":"instructions","trial_index":4,"time_elapsed":11873,"internal_node_id":"0.0-4.0"},{"success":true,"timeout":false,"failed_images":[],"failed_audio":[],"failed_video":[],"trial_type":"preload","trial_index":5,"time_elapsed":11903,"internal_node_id":"0.0-5.0"},{"rt":151,"stimulus":"tutorial/task_familiarization_images/part 1/01_N160_K90_cliqueRight_question1.PNG","response":" ","trial_type":"image-keyboard-response","trial_index":6,"time_elapsed":12056,"internal_node_id":"0.0-6.0"},{"rt":169,"stimulus":"tutorial/task_familiarization_images/part 1/02_N160_K90_cliqueRight_question2.PNG","response":" ","trial_type":"image-keyboard-response","trial_index":7,"time_elapsed":12225,"internal_node_id":"0.0-7.0"},{"rt":348,"stimulus":"tutorial/task_familiarization_images/part 1/03_N160_K90_cliqueRight_question3.PNG","response":"arrowleft","trial_type":"image-keyboard-response","trial_index":8,"time_elapsed":12573,"internal_node_id":"0.0-8.0"},{"rt":106,"stimulus":"tutorial/task_familiarization_images/part 1/04_N160_K90_cliqueRight_solution.PNG","response":" ","trial_type":"image-keyboard-response","trial_index":9,"time_elapsed":12680,"internal_node_id":"0.0-9.0"},{"rt":208,"stimulus":"tutorial/task_familiarization_images/part 1/05_N160_K65_cliqueRight_question1.PNG","response":" ","trial_type":"image-keyboard-response","trial_index":10,"time_elapsed":12888,"internal_node_id":"0.0-10.0"},{"rt":313,"stimulus":"tutorial/task_familiarization_images/part 1/06_N160_K65_cliqueRight_question2.PNG","response":" ","trial_type":"image-keyboard-response","trial_index":11,"time_elapsed":13202,"internal_node_id":"0.0-11.0"},{"rt":185,"stimulus":"tutorial/task_familiarization_images/part 1/07_N160_K65_cliqueRight_question3.PNG","response":"arrowleft","trial_type":"image-keyboard-response","trial_index":12,"time_elapsed":13388,"internal_node_id":"0.0-12.0"},{"rt":105,"stimulus":"tutorial/task_familiarization_images/part 1/08_N160_K65_cliqueRight_solution.PNG","response":" ","trial_type":"image-keyboard-response","trial_index":13,"time_elapsed":13494,"internal_node_id":"0.0-13.0"},{"rt":186,"stimulus":"tutorial/task_familiarization_images/part 1/09_N160_K50_cliqueLeft_question1.PNG","response":" ","trial_type":"image-keyboard-response","trial_index":14,"time_elapsed":13681,"internal_node_id":"0.0-14.0"},{"rt":182,"stimulus":"tutorial/task_familiarization_images/part 1/10_N160_K50_cliqueLeft_question2.PNG","response":" ","trial_type":"image-keyboard-response","trial_index":15,"time_elapsed":13863,"internal_node_id":"0.0-15.0"},{"rt":268,"stimulus":"tutorial/task_familiarization_images/part 1/11_N160_K50_cliqueLeft_question3.PNG","response":"arrowleft","trial_type":"image-keyboard-response","trial_index":16,"time_elapsed":14133,"internal_node_id":"0.0-16.0"},{"rt":105,"stimulus":"tutorial/task_familiarization_images/part 1/12_N160_K50_cliqueLeft_solution.PNG","response":" ","trial_type":"image-keyboard-response","trial_index":17,"time_elapsed":14239,"internal_node_id":"0.0-17.0"},{"rt":190,"stimulus":"tutorial/task_familiarization_images/part 1/13_N160_K80_cliqueLeft_question1.PNG","response":" ","trial_type":"image-keyboard-response","trial_index":18,"time_elapsed":14430,"internal_node_id":"0.0-18.0"},{"rt":207,"stimulus":"tutorial/task_familiarization_images/part 1/14_N160_K80_cliqueLeft_question2.PNG","response":" ","trial_type":"image-keyboard-response","trial_index":19,"time_elapsed":14638,"internal_node_id":"0.0-19.0"},{"rt":323,"stimulus":"tutorial/task_familiarization_images/part 1/15_N160_K80_cliqueLeft_question3.PNG","response":"arrowright","trial_type":"image-keyboard-response","trial_index":20,"time_elapsed":14962,"internal_node_id":"0.0-20.0"},{"rt":124,"stimulus":"tutorial/task_familiarization_images/part 1/16_N160_K80_cliqueLeft_solution.PNG","response":" ","trial_type":"image-keyboard-response","trial_index":21,"time_elapsed":15087,"internal_node_id":"0.0-21.0"},{"rt":202,"stimulus":"tutorial/task_familiarization_images/part 1/17_N160_K40_cliqueRight_question1.PNG","response":" ","trial_type":"image-keyboard-response","trial_index":22,"time_elapsed":15290,"internal_node_id":"0.0-22.0"},{"rt":178,"stimulus":"tutorial/task_familiarization_images/part 1/18_N160_K40_cliqueRight_question2.PNG","response":" ","trial_type":"image-keyboard-response","trial_index":23,"time_elapsed":15469,"internal_node_id":"0.0-23.0"},{"rt":304,"stimulus":"tutorial/task_familiarization_images/part 1/19_N160_K40_cliqueRight_question3.PNG","response":"arrowright","trial_type":"image-keyboard-response","trial_index":24,"time_elapsed":15774,"internal_node_id":"0.0-24.0"},{"rt":104,"stimulus":"tutorial/task_familiarization_images/part 1/20_N160_K40_cliqueRight_solution.PNG","response":" ","trial_type":"image-keyboard-response","trial_index":25,"time_elapsed":15879,"internal_node_id":"0.0-25.0"},{"rt":206,"stimulus":"tutorial/task_familiarization_images/part 1/21_N160_K70_cliqueLeft_question1.PNG","response":" ","trial_type":"image-keyboard-response","trial_index":26,"time_elapsed":16086,"internal_node_id":"0.0-26.0"},{"rt":201,"stimulus":"tutorial/task_familiarization_images/part 1/22_N160_K70_cliqueLeft_question2.PNG","response":" ","trial_type":"image-keyboard-response","trial_index":27,"time_elapsed":16287,"internal_node_id":"0.0-27.0"},{"rt":335,"stimulus":"tutorial/task_familiarization_images/part 1/23_N160_K70_cliqueLeft_question3.PNG","response":"arrowleft","trial_type":"image-keyboard-response","trial_index":28,"time_elapsed":16624,"internal_node_id":"0.0-28.0"},{"rt":58,"stimulus":"tutorial/task_familiarization_images/part 1/24_N160_K70_cliqueLeft_solution.PNG","response":" ","trial_type":"image-keyboard-response","trial_index":29,"time_elapsed":16683,"internal_node_id":"0.0-29.0"},{"success":true,"timeout":false,"failed_images":[],"failed_audio":[],"failed_video":[],"trial_type":"preload","trial_index":30,"time_elapsed":16701,"internal_node_id":"0.0-30.0"},{"rt":168,"stimulus":"tutorial/task_familiarization_images/part 2/01_160_80_cliqueLeft_withFeedback_1.PNG","response":" ","trial_type":"image-keyboard-response","trial_index":31,"time_elapsed":16869,"internal_node_id":"0.0-31.0"},{"rt":205,"stimulus":"tutorial/task_familiarization_images/part 2/02_160_80_cliqueLeft_withFeedback_1.PNG","response":" ","trial_type":"image-keyboard-response","trial_index":32,"time_elapsed":17075,"internal_node_id":"0.0-32.0"},{"rt":375,"stimulus":"tutorial/task_familiarization_images/part 2/03_160_80_cliqueLeft_withFeedback_3.PNG","response":"arrowright","trial_type":"image-keyboard-response","trial_index":33,"time_elapsed":17452,"internal_node_id":"0.0-33.0"},{"rt":134,"stimulus":"tutorial/task_familiarization_images/part 2/04_160_80_cliqueLeft_withFeedback_wrong.PNG","response":" ","trial_type":"image-keyboard-response","trial_index":34,"time_elapsed":17587,"internal_node_id":"0.0-34.0"},{"rt":202,"stimulus":"tutorial/task_familiarization_images/part 2/05_160_55_cliqueRight_withFeedback_1.PNG","response":" ","trial_type":"image-keyboard-response","trial_index":35,"time_elapsed":17790,"internal_node_id":"0.0-35.0"},{"rt":164,"stimulus":"tutorial/task_familiarization_images/part 2/06_160_55_cliqueRight_withFeedback_2.PNG","response":" ","trial_type":"image-keyboard-response","trial_index":36,"time_elapsed":17955,"internal_node_id":"0.0-36.0"},{"rt":511,"stimulus":"tutorial/task_familiarization_images/part 2/07_160_55_cliqueRight_withFeedback_3.PNG","response":"arrowleft","trial_type":"image-keyboard-response","trial_index":37,"time_elapsed":18466,"internal_node_id":"0.0-37.0"},{"rt":101,"stimulus":"tutorial/task_familiarization_images/part 2/08_160_55_cliqueRight_withFeedback_wrong.PNG","response":" ","trial_type":"image-keyboard-response","trial_index":38,"time_elapsed":18570,"internal_node_id":"0.0-38.0"},{"rt":193,"stimulus":"tutorial/task_familiarization_images/part 2/09_160_70_cliqueLeft_withFeedback_1.PNG","response":" ","trial_type":"image-keyboard-response","trial_index":39,"time_elapsed":18764,"internal_node_id":"0.0-39.0"},{"rt":189,"stimulus":"tutorial/task_familiarization_images/part 2/10_160_70_cliqueLeft_withFeedback_2.PNG","response":" ","trial_type":"image-keyboard-response","trial_index":40,"time_elapsed":18954,"internal_node_id":"0.0-40.0"},{"rt":451,"stimulus":"tutorial/task_familiarization_images/part 2/11_160_70_cliqueLeft_withFeedback_3.PNG","response":"arrowright","trial_type":"image-keyboard-response","trial_index":41,"time_elapsed":19406,"internal_node_id":"0.0-41.0"},{"rt":116,"stimulus":"tutorial/task_familiarization_images/part 2/12_160_70_cliqueLeft_withFeedback_wrong.PNG","response":" ","trial_type":"image-keyboard-response","trial_index":42,"time_elapsed":19523,"internal_node_id":"0.0-42.0"},{"success":true,"timeout":false,"failed_images":[],"failed_audio":[],"failed_video":[],"trial_type":"preload","trial_index":43,"time_elapsed":19551,"internal_node_id":"0.0-43.0"},{"view_history":[{"page_index":0,"viewing_time":833}],"rt":834,"trial_type":"instructions","trial_index":44,"time_elapsed":20385,"internal_node_id":"0.0-44.0"},{"rt":5174,"response":{"gender":"male","age":"23"},"trial_type":"survey-html-form","trial_index":45,"time_elapsed":25561,"internal_node_id":"0.0-45.0"},{"view_history":[{"page_index":0,"viewing_time":619}],"rt":619,"trial_type":"instructions","trial_index":46,"time_elapsed":26181,"internal_node_id":"0.0-46.0"},{"success":true,"trial_type":"fullscreen","trial_index":47,"time_elapsed":30141,"internal_node_id":"0.0-48.0"},{"rt":427,"response":" ","nodes_order":[845,679,238,735,539,225,924,790,555,889,577,302,962,518,796,378,76,265,18,804,184,523,292,819,782,722,522,28,764,742,862,337,464,605,760,642,655,22,365,77,701,419,537,386,504,675,635,300,324,465,968,560,13,293,526,643,274,997,799,898,829,350,749,581,457,736,192,20,88,593,375,496,947,287,509,440,427,109,944,206,497,482,911,540,553,348,622,978,269,131,46,499,52,106,455,389,124,448,822,412,299,923,620,789,653,664,670,11,983,114,812,758,66,823,647,612,719,290,688,667,120,955,841,197,95,600,725,68,58,916,543,788,606,99,897,723,44,420,797,177,863,908,979,996,398,71,493,91,154,831,94,995,525,291,508,127,69,255,975,264,97,477,848,232,707,830,971,216,79,634,332,713,283,480,871,596,266,281,740,372,356,136,954,273,280,41,980,221,558,278,977,542,654,122,582,423,590,38,828,408,840,693,818,618,650,580,750,631,42,247,203,827,579,436,103,561,323,339,56,113,254,404,390,712,425,772,546,115,392,821,488,24,377,902,194,63,314,410,23,964,913,637,814,224,683,349,795,368,262,295,909,825,329,519,656,17,371,14,25,294,610,926,304,876,189,917,369,759,484,174,842,346,574,682,651,505,148,816,463,716,875,874,285,303,880,959,296,867,721,614,9,210,479,990,327,47,826,932,779,240,786,140,156,450,272,748,592,936,422,563,856,888,515,532,37,149,586,245,54,475,335,511,800,887,833,607,813,912,652,534,205,726,87,940,188,439,674,853,673,951,445,2,550,152,374,90,139,687,549,886,892,536,506,861,619,60,695,352,271,5,694,55,155,972,15,920,125,364,678,143,910,644,357,943,914,172,933,241,510,34,573,538,731,588,680,198,249,524,615,587,974,896,234,881,57,92,603,48,677,30,566,762,158,256,187,164,950,301,907,794,8,630,229,443,478,471,757,710,83,199,702,899,460,21,414,159,446,922,279,700,308,383,732,237,309,399,454,434,102,854,939,708,958,211,686,401,105,937,162,720,562,531,984,501,268,472,494,668,334,430,575,325,870,35,449,277,564,645,661,318,64,461,403,938,918,598,473,704,6,119,928,134,144,207,953,193,456,418,89,521,900,491,72,253,4,884,604,173,879,597,166,811,949,438,860,387,706,763,360,361,976,883,382,503,257,987,402,316,153,516,632,715,451,602,755,520,366,190,444,660,834,395,921,424,623,397,74,191,53,640,745,514,175,0,167,487,626,353,904,435,552,347,370,469,145,689,297,432,459,362,820,963,891,118,288,178,466,559,781,67,495,571,186,252,769,957,381,129,583,416,554,7,669,141,572,585,724,258,791,775,474,442,952,242,213,729,882,529,608,556,567,915,777,985,783,513,717,96,428,181,470,852,638,843,890,802,646,391,415,405,227,150,851,846,312,235,528,476,718,233,855,998,751,753,591,244,429,138,805,467,151,967,36,84,161,16,973,179,230,747,837,31,200,10,945,698,986,338,919,787,142,691,373,784,835,730,117,982,116,636,236,733,507,648,251,548,500,396,961,330,171,714,431,627,101,801,903,267,400,621,676,589,98,157,73,411,61,824,690,417,709,147,628,231,204,992,850,894,260,699,62,326,45,838,104,341,617,744,319,527,180,798,981,991,761,306,956,311,19,999,780,697,766,447,201,108,601,212,289,322,413,576,773,868,671,569,885,12,872,26,421,960,948,965,275,989,810,754,305,624,331,33,351,934,970,202,49,406,1,584,185,746,485,111,692,261,59,376,385,243,112,123,3,657,462,219,665,832,50,565,82,284,437,345,711,160,39,458,905,966,358,263,75,78,270,388,196,844,738,778,776,756,315,226,481,426,625,629,354,43,866,616,935,502,286,384,282,895,217,333,739,741,901,941,110,864,248,133,246,228,453,355,433,994,659,599,313,135,70,551,768,342,310,570,307,209,441,214,633,727,27,925,752,86,993,128,649,250,452,696,65,130,223,836,170,530,259,483,51,359,662,137,176,803,684,486,545,873,658,363,80,641,298,218,639,809,163,208,893,737,168,815,847,100,685,222,215,771,498,557,770,492,930,878,547,774,169,927,705,328,792,85,734,663,785,81,165,929,613,336,517,239,317,380,595,931,367,765,906,681,807,859,490,535,808,839,107,568,672,544,320,276,121,743,865,849,32,29,611,728,407,806,379,609,767,409,321,869,666,857,858,988,489,817,394,182,468,40,512,132,340,969,793,183,541,93,877,220,393,594,942,533,146,195,343,126,946,578,703,344],"correct_response":"arrowright","block_index":0,"presentation_index":0,"clique_size":300,"graph_size":1000,"graphs_couple":["0037_N1000_K0300_NOCLIQUE","0073_N1000_K0300_CLIQUE"],"trial_type":"canvas-keyboard-response","trial_index":48,"time_elapsed":31491,"internal_node_id":"0.0-49.0-0.0-0.0"},{"rt":null,"stimulus":"audio_feedback/shuffles/shuffle01.mp3","response":null,"block_index":0,"presentation_index":0,"clique_size":300,"graph_size":1000,"graphs_couple":["0037_N1000_K0300_NOCLIQUE","0073_N1000_K0300_CLIQUE"],"trial_type":"audio-keyboard-response","trial_index":49,"time_elapsed":32942,"internal_node_id":"0.0-49.0-0.0-1.0"},{"rt":409,"response":"arrowright","nodes_order":[959,284,951,432,995,804,435,714,577,798,156,613,696,554,663,281,273,165,921,765,540,876,564,490,498,761,449,319,877,525,674,158,508,402,324,618,186,703,633,700,472,77,654,569,935,237,99,320,727,83,33,163,260,634,11,185,737,188,742,548,388,538,529,689,293,946,722,98,489,403,551,985,887,683,296,530,117,4,133,820,474,130,127,760,785,811,582,658,720,447,730,519,879,367,20,902,861,738,405,135,243,313,670,808,203,986,749,744,272,295,870,132,311,999,605,34,219,201,458,509,507,807,476,261,607,932,516,782,354,759,56,645,574,197,713,309,914,50,81,898,157,773,970,762,450,492,960,9,786,617,537,386,826,187,961,983,687,256,731,198,420,328,173,502,524,394,976,497,831,801,456,899,178,228,595,945,25,60,547,224,213,829,724,640,758,140,505,580,359,419,222,333,736,847,453,740,514,741,799,866,632,592,500,65,772,271,379,774,21,735,332,106,131,443,893,355,410,234,980,161,350,560,943,994,747,323,152,702,427,913,184,371,978,335,865,712,542,205,942,745,694,306,446,984,778,194,76,36,377,593,349,400,910,603,86,901,581,64,369,848,834,814,936,699,850,602,601,911,216,864,919,258,671,716,838,451,422,292,240,128,406,208,587,642,952,630,229,8,678,12,304,955,190,275,317,253,543,673,627,585,391,49,462,236,170,325,840,199,636,825,881,531,22,276,146,576,160,15,894,588,982,282,277,752,78,411,100,715,171,977,10,897,347,777,226,596,979,963,155,499,92,162,872,510,496,430,424,851,104,245,263,823,506,68,523,207,246,883,852,775,297,559,255,95,204,331,679,460,837,844,46,32,858,300,378,688,279,927,438,385,676,250,387,555,266,339,684,532,44,248,217,781,212,937,138,794,45,644,920,513,956,374,753,392,729,291,238,2,35,553,534,608,123,215,218,85,886,283,357,455,310,125,141,721,370,609,423,63,767,522,348,252,561,843,922,981,480,706,62,0,900,416,646,950,327,233,96,631,409,413,372,134,805,251,857,461,176,365,265,54,842,442,151,757,621,953,445,259,686,869,662,860,193,120,73,726,457,408,709,647,563,905,681,80,622,828,42,874,395,479,997,768,734,965,718,536,780,867,17,290,361,802,262,168,97,312,756,578,90,274,303,846,264,221,619,30,380,93,793,672,307,638,107,880,944,771,818,725,345,167,589,191,835,143,88,909,916,856,915,28,974,235,599,232,452,142,567,244,342,421,40,907,14,433,604,787,769,396,573,381,750,518,415,606,515,356,341,192,121,414,584,652,48,7,55,147,487,459,704,685,695,733,968,71,223,114,67,16,26,803,463,488,503,972,565,928,868,407,948,495,404,698,839,101,969,990,129,889,249,52,933,836,428,612,343,477,550,996,626,661,159,614,270,418,27,800,5,471,819,382,110,571,827,181,845,884,148,924,888,38,164,299,788,66,174,557,930,666,47,796,545,286,575,196,875,241,289,755,660,437,520,481,600,144,169,483,84,817,610,570,615,206,468,776,991,111,485,145,475,809,322,51,746,466,351,172,202,390,177,301,682,280,859,719,59,665,70,210,444,882,316,690,975,397,136,39,209,692,639,360,971,552,941,211,103,890,591,766,763,783,302,239,368,527,362,501,338,628,539,895,705,526,486,23,340,934,830,326,227,806,89,478,549,885,118,650,790,701,82,816,389,124,967,504,862,425,643,287,470,656,285,154,711,426,189,853,412,364,441,109,708,41,546,139,383,998,31,72,399,493,334,797,119,19,230,61,940,321,810,795,822,314,572,242,918,18,896,558,949,541,891,231,770,102,465,269,494,675,739,467,962,105,624,586,957,958,53,308,214,987,697,352,625,629,590,330,225,429,929,908,912,659,195,247,931,544,393,620,79,751,454,732,878,779,439,993,376,824,597,583,964,973,923,13,268,667,568,116,871,149,469,517,637,1,556,346,903,29,108,528,166,398,533,353,832,594,925,254,473,926,598,938,521,431,337,717,966,182,6,917,906,74,366,401,854,989,336,3,179,680,298,728,180,294,122,512,436,69,344,87,94,611,200,562,150,175,373,288,37,657,664,491,813,566,417,91,43,707,873,764,375,434,257,821,440,655,939,668,315,358,649,841,616,278,448,126,691,183,812,992,789,792,648,511,535,267,653,115,484,112,748,137,220,464,754,791,384,482,815,710,669,833,947,329,635,849,113,651,904,579,892,75,863,743,641,318,784,58,693,153,623,677,988,363,305,954,855,723,24,57],"correct_response":"arrowright","correct":true,"block_index":0,"presentation_index":0,"clique_size":300,"graph_size":1000,"graphs_couple":["0037_N1000_K0300_NOCLIQUE","0073_N1000_K0300_CLIQUE"],"trial_type":"canvas-keyboard-response","trial_index":50,"time_elapsed":34151,"internal_node_id":"0.0-49.1-0.1-0.1"},{"rt":null,"stimulus":"audio_feedback/right/coin01.mp3","response":null,"block_index":0,"presentation_index":0,"clique_size":300,"graph_size":1000,"graphs_couple":["0037_N1000_K0300_NOCLIQUE","0073_N1000_K0300_CLIQUE"],"trial_type":"audio-keyboard-response","trial_index":51,"time_elapsed":35162,"internal_node_id":"0.0-49.1-0.1-1.1"},{"rt":542,"response":"arrowright","nodes_order":[207,204,368,742,489,920,630,774,465,517,89,637,525,340,801,821,636,640,540,48,126,984,96,932,536,276,535,986,346,409,719,569,752,32,131,275,333,435,867,192,243,725,167,732,625,178,837,40,697,27,647,141,992,31,501,176,547,199,788,325,665,823,965,852,349,539,150,633,318,913,189,147,770,931,453,393,135,379,966,438,390,662,514,591,262,566,259,962,805,37,14,495,355,922,797,989,344,298,700,878,372,599,436,736,583,759,312,164,285,826,695,554,741,879,775,55,253,198,396,543,561,873,183,766,180,113,66,214,294,653,889,387,541,778,996,83,308,229,928,358,431,419,92,581,980,882,292,151,391,313,109,172,252,820,323,341,327,979,764,910,289,548,597,804,658,758,848,97,894,467,443,373,359,954,512,926,970,185,420,1,123,309,627,729,377,669,398,994,241,594,711,76,483,498,508,619,458,933,900,730,245,914,816,288,671,895,416,338,21,411,488,993,577,605,127,81,7,460,684,524,575,74,267,964,290,291,352,768,515,53,877,924,491,256,918,94,769,60,589,714,938,753,824,215,210,142,549,537,239,152,802,679,455,937,608,502,803,246,971,987,840,618,36,722,395,413,746,648,950,500,692,883,307,44,691,856,634,43,248,2,787,555,85,146,82,310,869,646,912,956,11,236,70,474,159,988,645,166,383,157,145,789,423,943,134,287,364,314,832,487,626,38,428,182,56,570,733,853,847,260,101,670,41,72,818,639,374,452,332,588,321,825,690,430,891,88,195,193,106,403,79,100,122,47,919,796,751,449,975,701,838,790,250,154,8,767,757,666,173,981,604,571,120,316,434,712,785,205,280,105,315,593,814,19,644,563,976,3,584,186,744,28,46,233,546,454,217,506,148,909,902,219,822,191,272,170,425,862,531,91,16,179,685,65,885,590,221,939,386,456,472,678,982,841,249,175,552,776,278,442,196,709,689,397,161,375,188,925,739,718,381,842,974,102,792,755,799,469,58,284,941,107,427,492,422,607,404,42,77,795,402,49,754,98,533,361,881,119,628,25,507,654,560,951,936,907,509,22,432,335,934,890,476,798,578,749,174,696,868,520,652,694,527,426,763,201,461,261,944,817,557,348,39,693,407,649,439,551,52,362,268,503,538,223,582,675,748,972,676,836,720,216,772,347,819,564,385,479,680,542,871,270,255,850,462,786,271,493,957,609,716,898,177,322,762,496,73,112,429,412,211,394,559,995,921,326,87,67,371,194,896,273,4,743,445,417,301,295,876,441,952,659,330,203,629,300,592,18,406,834,342,683,621,108,650,235,846,737,710,927,200,410,874,839,209,486,473,923,153,168,418,811,519,299,773,899,165,698,656,643,784,959,357,163,906,827,978,103,606,50,800,579,809,26,612,366,12,345,408,269,242,602,184,940,807,331,860,35,279,296,30,587,5,24,726,59,600,353,0,513,505,717,464,655,264,266,494,948,110,997,735,568,62,916,477,783,756,771,187,392,254,708,230,258,857,945,731,651,567,915,485,99,699,475,810,808,615,518,884,806,57,534,522,861,835,855,257,830,875,983,545,137,317,614,953,565,574,930,998,482,64,750,129,813,724,661,977,457,942,511,673,999,859,158,499,350,212,888,611,68,208,376,470,664,657,238,354,946,635,388,616,75,54,213,782,480,61,794,468,459,23,115,471,227,20,226,160,681,144,713,143,765,10,960,263,961,384,516,17,572,466,523,339,302,95,337,968,283,481,617,133,132,544,63,78,596,849,529,573,553,562,303,206,969,336,15,224,843,202,382,715,991,140,334,282,124,917,433,780,356,363,632,463,828,311,343,171,162,277,622,734,13,747,29,247,281,451,863,793,149,812,558,504,672,156,870,399,274,760,872,973,380,33,190,400,595,218,990,845,51,887,967,220,851,324,985,319,125,405,304,297,598,510,682,904,528,707,138,610,222,117,306,93,378,674,949,706,620,613,521,530,844,601,892,893,437,116,139,686,69,484,370,360,911,104,550,745,286,181,421,365,779,688,490,90,86,446,865,251,448,444,603,293,947,667,955,728,702,660,721,130,854,424,367,958,231,320,831,586,305,232,6,903,833,556,118,901,228,935,897,497,9,638,111,197,963,478,450,84,237,532,128,791,929,155,677,136,781,585,641,631,687,905,234,908,761,225,121,401,71,866,668,740,169,864,526,240,663,34,880,642,829,886,623,624,265,815,440,414,114,329,369,738,723,858,45,704,777,244,576,328,447,351,80,705,703,727,580,389,415],"correct_response":"arrowright","correct":true,"block_index":0,"presentation_index":1,"clique_size":300,"graph_size":1000,"graphs_couple":["0069_N1000_K0300_NOCLIQUE","0055_N1000_K0300_CLIQUE"],"trial_type":"canvas-keyboard-response","trial_index":52,"time_elapsed":36639,"internal_node_id":"0.0-50.0-0.0-0.0"},{"rt":null,"stimulus":"audio_feedback/right/coin01.mp3","response":null,"block_index":0,"presentation_index":1,"clique_size":300,"graph_size":1000,"graphs_couple":["0069_N1000_K0300_NOCLIQUE","0055_N1000_K0300_CLIQUE"],"trial_type":"audio-keyboard-response","trial_index":53,"time_elapsed":37622,"internal_node_id":"0.0-50.0-0.0-1.0"},{"rt":462,"response":"arrowright","nodes_order":[943,624,652,420,908,603,860,635,80,28,69,275,466,891,961,102,248,63,994,400,938,829,185,370,339,790,253,452,543,443,178,929,580,273,595,769,306,235,32,818,684,329,468,310,607,368,46,751,493,800,372,19,840,696,17,378,642,221,45,518,614,453,439,323,890,940,228,541,51,142,833,97,740,195,363,200,941,748,64,667,156,135,605,989,676,935,196,324,864,921,313,985,647,987,174,568,525,209,149,522,357,585,895,11,596,722,360,167,109,763,472,955,98,901,598,462,81,856,539,764,768,217,78,975,358,736,969,476,820,247,974,380,207,550,629,743,855,704,967,881,874,804,300,189,316,670,611,958,845,574,256,752,141,335,22,139,464,672,409,175,61,936,48,254,548,215,838,573,26,138,617,312,558,303,562,655,331,737,995,172,234,206,900,201,471,442,932,100,314,387,388,345,659,839,747,429,302,861,68,979,939,285,337,299,5,465,662,612,204,587,810,919,785,322,689,362,570,304,888,706,350,473,252,582,220,242,514,621,73,575,347,894,808,163,841,62,656,406,460,415,276,298,3,980,630,502,84,823,988,164,226,238,214,291,500,925,134,657,365,793,405,831,523,738,496,16,8,771,559,554,197,21,395,694,584,734,283,809,590,154,348,577,434,799,632,133,991,897,811,802,231,419,260,725,902,787,282,280,262,438,729,450,307,427,352,673,327,631,780,828,551,648,288,414,703,137,286,569,530,181,224,640,757,945,119,124,650,401,637,732,915,148,117,266,852,403,0,512,114,867,896,677,317,165,601,445,666,488,112,479,338,489,628,594,183,538,268,330,842,353,211,145,826,270,723,399,567,12,255,377,692,789,693,383,289,334,671,926,132,446,669,884,161,588,817,513,540,315,44,448,996,455,40,417,184,129,892,147,481,537,233,885,708,687,778,830,520,868,749,475,23,837,695,807,318,499,320,571,103,878,293,794,776,599,423,1,39,444,194,180,848,422,413,144,579,873,14,4,155,532,812,806,424,859,651,229,832,767,917,661,814,428,777,779,257,106,27,770,904,437,821,565,668,889,608,834,688,50,959,683,954,720,294,553,544,950,992,251,654,265,963,887,516,6,678,698,364,412,407,623,795,394,104,536,70,188,613,333,731,482,416,526,952,701,822,709,169,7,151,953,600,863,633,591,76,982,441,456,576,355,391,54,813,123,85,343,305,382,583,65,849,29,222,192,788,136,486,474,871,503,49,246,483,487,162,509,258,126,665,101,639,396,219,949,681,88,865,336,716,371,847,781,351,566,79,404,909,618,786,426,658,927,501,203,718,815,170,193,277,367,907,385,96,86,877,130,58,491,934,349,418,956,381,517,686,619,393,325,35,99,886,467,176,240,432,999,986,13,766,910,384,721,223,981,527,625,177,52,454,328,202,66,43,690,369,870,742,354,511,920,680,198,152,918,263,340,616,997,93,173,213,376,239,497,379,269,430,128,962,898,560,858,212,30,634,942,824,505,95,449,876,38,431,2,825,24,295,121,244,386,730,94,18,470,948,931,168,750,851,759,552,83,359,153,597,561,893,756,504,653,782,853,208,218,664,440,216,279,973,41,880,555,451,679,92,819,309,862,321,796,726,843,267,510,905,922,205,146,478,274,410,542,964,120,557,375,160,643,91,9,924,459,923,977,521,484,477,296,159,846,118,461,641,728,745,844,775,593,261,435,157,883,563,272,803,210,421,374,646,916,105,507,581,682,113,108,53,107,33,606,983,271,713,75,592,87,82,259,278,519,972,772,281,390,533,699,67,724,914,739,495,250,236,719,586,714,344,457,675,436,906,301,649,622,990,492,311,753,912,110,971,20,733,42,947,10,857,762,398,508,741,71,589,978,715,937,131,397,702,187,816,332,480,199,529,545,866,984,993,249,758,225,620,490,697,392,744,951,960,356,930,685,604,389,425,243,143,55,297,754,805,707,965,47,150,319,645,746,122,944,36,835,765,140,791,494,89,171,801,361,111,602,115,116,264,610,292,705,717,37,626,638,373,774,872,836,549,284,179,346,57,531,74,797,547,232,34,447,711,230,308,761,534,966,287,660,783,644,792,854,56,463,411,899,827,946,237,125,572,15,700,968,627,498,674,485,998,556,186,90,879,735,227,342,535,341,158,402,366,933,60,245,190,77,913,25,755,564,691,882,970,408,663,976,798,469,182,506,59,636,241,524,727,615,31,433,528,911,903,191,875,458,72,869,928,712,290,326,546,515,166,957,609,784,760,773,850,710,127,578],"correct_response":"arrowright","correct":true,"block_index":0,"presentation_index":2,"clique_size":267,"graph_size":1000,"graphs_couple":["0051_N1000_K0267_NOCLIQUE","0034_N1000_K0267_CLIQUE"],"trial_type":"canvas-keyboard-response","trial_index":54,"time_elapsed":38980,"internal_node_id":"0.0-51.0-0.0-0.0"},{"rt":null,"stimulus":"audio_feedback/right/coin01.mp3","response":null,"block_index":0,"presentation_index":2,"clique_size":267,"graph_size":1000,"graphs_couple":["0051_N1000_K0267_NOCLIQUE","0034_N1000_K0267_CLIQUE"],"trial_type":"audio-keyboard-response","trial_index":55,"time_elapsed":39981,"internal_node_id":"0.0-51.0-0.0-1.0"},{"rt":525,"response":"arrowleft","nodes_order":[275,43,131,516,615,243,300,864,404,245,867,310,795,593,962,893,48,583,650,264,609,658,298,316,193,507,405,57,439,168,15,442,328,133,433,230,396,980,492,768,852,835,398,82,624,846,734,928,453,561,508,8,817,375,554,352,62,285,688,464,596,54,52,427,683,247,989,248,112,160,476,610,838,154,270,257,319,311,733,213,278,468,621,591,574,988,635,791,798,921,323,865,45,265,673,915,37,990,952,222,851,204,395,580,601,484,341,488,367,217,541,130,342,459,96,330,225,756,108,949,410,821,78,23,845,158,531,855,220,767,42,385,89,340,344,361,463,918,164,605,317,100,645,97,486,930,926,125,777,198,157,573,36,235,177,122,221,684,260,848,631,623,6,932,91,538,280,234,656,657,647,710,511,138,306,187,796,575,555,309,858,263,770,599,606,703,56,744,668,408,495,640,169,17,386,296,691,628,50,917,7,548,224,649,21,590,314,444,142,150,996,12,489,878,494,216,718,713,944,426,560,326,281,877,269,632,366,271,971,446,499,999,672,812,891,651,702,371,283,653,192,927,129,214,338,241,625,695,900,236,267,778,602,162,523,717,412,44,449,13,732,116,90,892,742,850,134,178,443,793,103,288,939,970,556,704,739,416,622,937,470,253,297,413,258,74,202,399,232,360,534,533,268,332,145,92,67,320,87,218,207,955,83,237,729,681,868,743,698,792,862,738,171,365,559,69,642,562,382,677,27,714,336,423,364,425,545,779,774,888,902,629,357,428,969,292,65,159,655,553,829,951,252,814,321,896,919,731,346,194,415,773,636,324,289,102,114,436,847,699,627,497,895,39,262,276,669,680,34,351,634,469,107,14,595,690,452,978,63,547,339,174,30,0,803,723,475,722,191,59,715,282,393,810,211,184,637,678,995,837,485,758,771,58,985,567,564,462,689,694,612,685,93,972,419,819,127,736,55,646,32,983,277,434,856,766,493,358,195,137,287,456,286,304,544,752,687,524,597,906,899,244,166,80,161,728,312,692,206,66,542,41,825,227,228,362,652,33,565,566,849,149,135,963,586,272,124,472,776,238,175,337,432,945,832,521,406,584,763,240,110,905,824,457,49,29,876,675,737,185,356,22,239,883,956,968,467,190,661,518,210,786,598,414,403,760,806,335,816,725,506,325,705,676,460,841,16,897,105,755,611,859,712,345,305,987,165,844,654,368,302,106,909,529,196,746,18,229,301,308,984,618,941,557,788,146,1,907,726,101,965,811,438,24,908,572,422,875,40,527,759,881,789,231,616,354,435,861,505,128,480,242,212,804,644,38,697,765,119,711,751,440,402,246,450,916,293,409,95,99,447,800,73,638,780,815,920,648,348,391,805,397,118,600,353,454,109,682,373,430,836,431,887,170,630,894,421,378,515,120,98,991,843,942,500,201,589,709,525,535,539,853,79,976,873,147,662,857,514,923,986,519,482,979,380,136,9,117,830,740,387,355,827,981,372,820,587,359,577,660,441,693,735,664,626,491,582,75,88,532,313,614,84,126,890,840,665,604,696,913,953,28,576,958,477,959,871,429,724,924,77,181,910,501,70,639,551,153,753,882,81,967,757,10,912,502,199,2,558,863,537,303,549,588,250,172,152,266,392,47,76,167,822,617,947,781,333,445,823,957,579,291,749,25,543,831,176,121,964,787,465,417,720,394,592,104,418,992,874,188,885,31,954,249,571,208,132,389,498,536,284,570,123,686,526,745,322,950,911,173,706,809,772,886,633,455,294,350,148,183,370,487,64,869,839,884,71,374,46,546,700,721,383,26,3,578,407,828,530,377,513,115,72,901,223,384,329,701,307,619,997,935,540,11,496,279,750,509,977,854,334,613,563,522,180,608,379,879,904,251,666,19,504,205,51,785,807,254,369,794,503,585,4,255,748,707,889,140,670,826,934,716,569,182,719,659,643,933,483,914,274,376,331,347,520,973,783,674,667,993,420,401,53,411,86,35,834,155,975,437,226,113,349,61,764,327,679,998,474,517,550,143,219,860,111,754,197,799,390,318,940,85,473,898,552,295,974,866,490,60,233,141,808,209,641,833,607,994,363,478,388,179,481,315,747,775,708,870,581,671,139,880,741,903,801,762,842,727,215,982,151,261,663,936,163,961,451,784,471,790,273,290,94,189,5,931,186,256,461,512,448,510,528,466,818,156,730,929,946,925,381,872,400,922,948,479,769,144,802,938,259,203,200,761,343,797,966,960,68,782,603,424,594,943,568,813,620,299,20,458],"correct_response":"arrowleft","correct":true,"block_index":0,"presentation_index":3,"clique_size":267,"graph_size":1000,"graphs_couple":["0077_N1000_K0267_CLIQUE","0060_N1000_K0267_NOCLIQUE"],"trial_type":"canvas-keyboard-response","trial_index":56,"time_elapsed":41448,"internal_node_id":"0.0-52.0-0.0-0.0"},{"rt":null,"stimulus":"audio_feedback/right/coin01.mp3","response":null,"block_index":0,"presentation_index":3,"clique_size":267,"graph_size":1000,"graphs_couple":["0077_N1000_K0267_CLIQUE","0060_N1000_K0267_NOCLIQUE"],"trial_type":"audio-keyboard-response","trial_index":57,"time_elapsed":42461,"internal_node_id":"0.0-52.0-0.0-1.0"},{"rt":545,"response":"arrowright","nodes_order":[667,969,213,343,275,248,346,664,60,942,82,621,524,995,271,324,266,570,386,623,309,442,222,749,992,687,290,391,832,987,985,707,928,280,208,212,174,742,365,624,161,407,17,929,650,734,533,277,101,9,670,269,807,776,327,962,293,696,541,416,246,182,487,674,279,68,111,540,959,773,986,256,311,849,426,171,576,774,200,414,165,55,672,756,748,353,695,136,737,305,592,665,671,505,846,657,591,253,769,620,714,777,879,374,532,348,438,799,383,155,307,944,965,158,939,851,619,232,551,884,932,761,316,557,951,852,758,606,571,658,550,36,646,596,175,955,560,313,0,297,40,176,436,215,508,203,455,839,582,274,991,434,398,563,463,495,655,763,584,739,247,735,905,388,611,886,639,84,931,352,612,418,640,546,854,207,473,966,238,440,336,797,634,419,677,79,957,937,325,819,139,225,424,461,243,954,145,285,861,345,581,590,192,746,613,903,876,736,429,543,549,713,428,48,447,318,28,757,867,334,445,841,371,344,41,916,299,46,946,187,740,638,784,668,331,868,109,499,599,127,193,259,542,890,412,481,521,64,589,602,146,356,272,918,90,507,201,875,4,685,716,262,157,218,354,228,547,83,480,147,502,833,686,357,733,443,842,513,762,45,133,632,361,223,517,52,747,637,575,882,216,437,618,296,953,947,170,478,394,539,401,432,220,691,12,270,883,936,451,701,173,692,304,544,531,520,794,452,308,909,872,319,977,31,241,244,587,362,20,610,892,782,335,202,662,273,574,844,152,123,118,862,786,338,385,120,679,265,153,858,57,772,604,494,564,979,501,659,126,702,885,831,950,58,329,556,964,572,552,381,39,764,411,753,622,492,103,471,417,730,284,431,864,404,467,704,910,449,251,689,978,151,168,198,838,460,949,141,78,630,717,935,727,795,195,117,518,698,328,206,605,697,255,260,199,180,752,649,167,814,683,194,1,470,49,281,663,933,373,835,743,99,34,607,2,310,24,163,237,530,896,406,963,25,209,970,579,653,300,42,855,724,301,920,477,264,178,930,389,865,441,93,234,475,845,853,320,943,392,188,122,751,76,97,877,468,825,363,912,179,387,113,333,938,676,314,107,821,680,902,131,32,804,21,673,525,355,465,583,245,811,164,526,706,721,878,106,186,927,379,636,812,177,183,558,115,688,230,415,614,420,289,997,486,641,866,626,710,856,700,914,760,750,793,830,720,712,675,586,189,887,282,54,433,69,913,75,226,94,339,485,217,745,162,326,500,511,708,627,768,409,26,728,59,785,181,112,642,791,368,47,600,809,990,843,647,22,384,114,74,140,810,30,585,474,288,382,744,554,81,504,138,806,377,580,660,489,71,631,593,775,456,738,545,506,268,817,654,982,408,699,996,393,682,466,690,617,873,263,719,56,19,968,847,37,422,960,656,166,430,462,816,169,805,754,66,5,787,514,191,130,197,149,483,493,555,588,729,135,306,848,403,95,961,919,860,523,421,33,276,503,116,771,894,342,906,783,86,367,732,459,235,534,73,923,519,380,548,553,527,644,80,779,889,137,143,693,350,578,603,880,239,105,723,941,62,694,792,802,648,439,893,801,399,294,410,871,497,185,369,826,211,515,594,121,236,129,100,897,836,766,298,608,27,725,915,132,457,315,396,759,718,154,900,88,891,458,142,535,38,376,18,840,378,454,956,172,824,446,981,796,85,818,628,901,661,482,529,53,755,29,453,292,781,989,609,666,190,267,351,803,291,16,8,780,359,257,958,908,765,516,888,125,51,405,261,400,512,148,13,767,509,360,283,808,788,312,231,242,917,904,370,72,976,11,184,450,741,536,789,219,993,278,77,302,669,827,595,67,337,91,999,104,837,863,227,895,413,857,980,925,124,252,156,815,375,444,317,559,372,491,204,715,907,119,850,484,934,110,988,476,472,790,684,778,726,496,425,537,423,984,940,569,349,651,395,366,829,233,528,479,286,249,159,625,15,899,616,828,577,323,813,322,722,6,994,498,427,92,924,522,921,568,834,397,3,538,347,705,859,562,983,7,973,881,822,561,898,196,44,23,945,98,823,240,65,254,108,14,63,464,61,43,971,952,469,922,10,967,128,820,402,250,601,798,874,597,770,102,948,643,210,321,635,341,510,96,566,87,364,258,340,629,89,711,681,229,567,633,160,972,998,35,287,490,303,435,573,800,598,652,488,358,870,221,295,50,709,911,731,70,869,150,390,448,975,214,205,645,565,703,144,926,134,678,332,224,330,615,974],"correct_response":"arrowright","correct":true,"block_index":0,"presentation_index":4,"clique_size":233,"graph_size":1000,"graphs_couple":["0086_N1000_K0233_NOCLIQUE","0080_N1000_K0233_CLIQUE"],"trial_type":"canvas-keyboard-response","trial_index":58,"time_elapsed":43915,"internal_node_id":"0.0-53.0-0.0-0.0"},{"rt":null,"stimulus":"audio_feedback/right/coin01.mp3","response":null,"block_index":0,"presentation_index":4,"clique_size":233,"graph_size":1000,"graphs_couple":["0086_N1000_K0233_NOCLIQUE","0080_N1000_K0233_CLIQUE"],"trial_type":"audio-keyboard-response","trial_index":59,"time_elapsed":44901,"internal_node_id":"0.0-53.0-0.0-1.0"},{"rt":1461,"response":"arrowright","nodes_order":[758,810,198,978,549,212,905,612,241,565,511,495,447,642,609,206,338,907,246,444,790,66,411,114,164,481,173,550,40,876,993,771,599,747,64,162,478,620,238,806,587,950,920,26,393,873,261,801,861,933,407,440,52,991,146,625,448,405,357,149,772,486,938,280,384,675,374,108,437,516,788,336,283,705,267,997,455,255,848,477,471,372,833,589,332,493,202,412,618,916,650,366,919,435,731,996,37,752,926,304,228,911,397,988,414,992,487,41,897,102,131,351,94,728,936,704,715,977,214,878,903,652,199,529,782,520,183,533,794,239,774,350,983,54,711,890,48,249,417,491,330,868,0,670,301,45,264,188,252,688,257,661,322,594,653,693,899,201,453,804,308,583,655,82,864,290,943,161,968,660,939,560,694,210,590,543,733,588,686,253,929,112,915,396,369,505,71,218,523,385,597,513,190,306,170,874,787,99,250,679,638,585,526,998,963,434,457,115,617,430,62,292,496,428,231,723,498,130,969,160,315,2,593,958,83,178,24,80,349,154,851,180,262,399,142,358,119,957,586,836,317,174,427,383,716,815,176,896,163,528,849,877,766,211,354,537,144,843,96,847,953,109,773,128,947,629,497,601,61,185,341,737,885,841,232,88,410,134,326,224,602,865,900,780,124,531,271,818,823,421,789,507,664,27,278,122,909,375,875,87,934,156,835,571,148,500,53,881,802,838,616,258,316,732,352,654,105,759,38,740,472,377,311,828,69,690,462,166,708,591,68,894,380,370,928,976,945,524,14,307,967,171,391,948,418,844,467,237,147,506,113,999,979,270,775,415,323,635,355,777,291,569,781,28,914,665,98,921,755,770,186,499,850,353,356,695,889,191,689,77,677,359,930,335,786,941,667,813,784,243,816,473,975,832,982,658,607,633,106,853,544,952,796,10,136,60,572,707,521,719,795,603,89,519,42,116,767,925,619,898,805,817,123,859,347,259,754,446,479,862,812,717,539,512,318,371,143,515,18,107,168,942,730,4,182,76,299,564,981,67,510,312,656,584,222,662,621,687,923,343,872,605,673,649,20,576,627,200,321,545,866,432,470,809,669,556,333,582,11,641,233,179,554,734,826,989,742,668,305,964,227,970,86,699,937,763,701,592,110,296,761,637,33,990,856,808,837,710,16,365,912,431,485,940,209,645,745,84,248,518,217,58,387,488,631,167,97,858,867,408,19,553,247,204,678,559,23,272,797,663,811,720,266,822,150,303,403,741,870,456,117,552,6,646,181,954,300,251,570,287,628,125,276,727,101,622,514,555,29,762,129,50,297,91,379,216,596,814,702,319,234,504,706,698,765,313,971,776,913,438,845,36,368,709,489,72,884,987,92,449,624,640,657,855,207,344,882,906,394,931,331,610,175,834,126,632,195,579,439,696,475,561,420,985,840,886,244,713,235,613,284,254,360,386,220,320,908,820,219,917,827,955,433,626,215,611,17,476,726,275,721,651,445,226,348,530,756,984,337,260,697,974,682,194,63,548,581,363,557,508,294,951,281,760,400,598,830,739,791,73,793,666,70,285,361,151,918,683,423,225,31,196,153,43,966,269,133,647,484,103,367,376,193,879,279,373,799,636,465,672,852,286,718,288,39,615,450,578,342,302,887,85,821,442,381,803,189,842,256,155,888,753,994,79,459,223,681,714,127,229,474,273,289,34,240,466,236,807,768,165,157,398,7,192,595,100,574,674,409,21,712,676,659,364,534,541,910,406,558,47,722,159,416,735,700,509,980,402,630,274,542,451,743,568,644,483,205,339,501,785,49,490,779,213,1,831,604,419,93,461,527,90,46,35,340,184,863,441,738,15,551,648,242,725,729,482,3,895,460,935,118,819,746,614,51,798,567,328,685,792,891,425,744,962,325,95,203,904,691,158,525,282,137,132,563,751,9,927,606,949,492,854,135,310,566,197,750,829,757,960,121,314,268,32,208,749,671,922,580,362,944,869,329,346,575,748,345,463,778,883,104,893,680,78,187,692,480,436,452,724,494,469,55,783,152,961,547,230,600,932,703,75,800,871,546,846,401,532,221,25,902,468,535,81,12,334,44,892,443,59,540,395,536,946,309,454,404,139,8,57,824,13,298,573,965,65,956,839,56,458,502,577,643,860,177,880,634,639,522,293,327,378,825,764,986,388,973,503,924,245,5,145,422,263,429,623,464,111,995,390,140,120,901,857,684,769,169,562,426,22,382,608,959,277,413,141,736,74,392,517,172,424,265,30,138,538,295,972,324,389],"correct_response":"arrowright","correct":true,"block_index":0,"presentation_index":5,"clique_size":233,"graph_size":1000,"graphs_couple":["0088_N1000_K0233_NOCLIQUE","0036_N1000_K0233_CLIQUE"],"trial_type":"canvas-keyboard-response","trial_index":60,"time_elapsed":47289,"internal_node_id":"0.0-54.0-0.0-0.0"},{"rt":null,"stimulus":"audio_feedback/right/coin01.mp3","response":null,"block_index":0,"presentation_index":5,"clique_size":233,"graph_size":1000,"graphs_couple":["0088_N1000_K0233_NOCLIQUE","0036_N1000_K0233_CLIQUE"],"trial_type":"audio-keyboard-response","trial_index":61,"time_elapsed":48281,"internal_node_id":"0.0-54.0-0.0-1.0"},{"rt":2096,"response":"arrowleft","nodes_order":[46,426,921,208,123,969,822,479,251,179,69,961,773,393,904,797,572,20,263,851,468,56,295,303,337,735,178,787,124,648,25,618,887,927,782,370,919,798,240,532,122,333,602,931,689,112,401,543,872,752,144,758,2,551,924,134,1,385,150,482,734,820,790,827,844,890,657,306,623,911,241,510,848,845,275,632,745,863,315,892,589,250,108,71,889,319,419,154,111,380,126,397,813,727,633,500,30,196,909,803,238,650,531,747,525,978,136,724,304,51,293,75,256,64,629,929,783,257,70,188,976,117,449,994,317,88,466,82,292,964,28,666,130,527,534,276,57,195,408,282,656,89,700,480,777,503,526,459,511,335,984,515,34,698,936,29,568,737,949,668,846,642,825,920,974,550,504,953,570,6,17,95,245,118,631,155,477,908,352,67,285,103,519,567,939,441,934,100,521,649,267,881,325,308,471,697,202,94,467,120,138,298,493,616,557,938,673,684,348,166,857,22,219,484,682,425,564,342,220,157,167,36,888,165,606,137,905,731,639,594,580,578,952,373,284,899,324,260,584,461,414,883,837,764,259,686,732,769,398,140,517,416,424,162,894,266,417,847,879,273,239,14,968,389,587,218,454,128,203,296,508,553,720,190,717,7,816,164,711,499,52,647,21,709,97,77,522,39,661,85,10,367,9,901,538,771,738,151,237,223,35,997,985,541,84,772,268,58,998,388,520,814,473,759,708,963,801,696,886,132,839,492,269,102,893,161,619,336,45,990,778,405,789,583,423,244,636,552,363,959,670,744,340,608,33,965,685,862,579,192,607,40,205,957,302,148,274,973,49,345,780,90,420,983,145,560,92,667,321,87,381,281,331,42,291,634,127,512,236,200,577,394,880,728,637,73,660,916,719,277,817,206,301,947,13,882,701,50,501,878,351,47,253,835,977,230,400,554,173,489,558,693,374,865,174,455,4,677,430,876,506,139,855,152,221,48,344,366,279,313,836,610,681,470,225,806,502,62,402,626,399,98,439,463,242,540,687,297,926,736,537,300,611,428,910,995,392,379,962,507,217,78,322,483,674,898,809,726,765,451,159,153,596,635,249,539,756,209,884,3,442,601,329,115,114,545,679,172,110,197,743,272,548,31,377,248,358,802,715,971,528,113,864,347,252,593,722,788,776,646,231,841,786,980,705,448,923,141,160,755,690,316,201,928,933,768,121,664,305,396,530,254,903,979,332,5,18,378,795,741,840,514,781,262,215,641,565,770,571,815,807,651,116,563,214,754,935,576,496,359,986,533,612,699,993,264,311,853,422,387,447,895,739,703,189,917,362,76,61,369,712,168,729,785,372,523,452,966,654,0,383,834,183,271,320,55,824,918,465,81,104,592,800,805,131,902,942,694,620,255,107,8,481,762,989,204,702,675,135,404,830,437,443,460,914,323,361,885,415,614,598,213,621,937,180,529,535,536,861,453,688,194,457,891,338,907,906,412,871,491,486,125,793,429,831,472,65,950,105,334,410,555,343,176,941,478,562,41,495,288,228,438,37,828,599,808,158,227,970,662,832,849,945,663,794,212,199,604,440,678,716,142,280,235,15,704,821,948,516,761,750,680,810,91,999,896,505,749,354,992,191,341,943,843,597,866,186,184,59,624,210,327,751,247,791,829,546,286,458,353,149,603,133,573,86,922,339,432,509,278,66,833,513,68,83,318,411,742,211,181,710,869,873,718,987,143,433,310,222,418,850,382,875,721,779,595,464,258,638,261,24,431,265,915,609,233,330,498,72,246,384,357,185,838,767,355,434,16,19,575,746,326,198,409,958,391,581,119,561,692,390,435,556,733,101,877,462,819,156,996,842,26,658,229,193,446,652,444,954,725,799,982,487,544,913,53,617,234,643,859,547,955,591,622,38,630,474,106,627,375,371,314,27,723,43,757,207,294,32,368,175,450,706,490,784,23,574,147,975,289,645,655,360,854,804,518,856,897,309,960,346,476,109,485,874,763,365,312,812,730,792,870,177,625,640,867,364,586,169,163,753,912,226,328,569,299,349,665,469,287,714,669,766,283,494,96,672,676,605,852,940,44,972,628,436,80,170,659,406,79,524,270,900,932,713,549,823,403,613,566,456,421,63,187,307,981,413,497,171,988,818,590,12,691,967,615,944,991,386,224,653,182,232,290,956,644,395,350,559,356,376,707,774,588,445,93,811,488,146,542,796,11,74,930,951,683,826,858,925,860,216,868,243,54,407,760,129,740,475,427,60,582,695,748,775,99,600,671,946,585],"correct_response":"arrowleft","correct":true,"block_index":0,"presentation_index":6,"clique_size":217,"graph_size":1000,"graphs_couple":["0035_N1000_K0217_CLIQUE","0012_N1000_K0217_NOCLIQUE"],"trial_type":"canvas-keyboard-response","trial_index":62,"time_elapsed":51277,"internal_node_id":"0.0-55.0-0.0-0.0"},{"rt":null,"stimulus":"audio_feedback/right/coin01.mp3","response":null,"block_index":0,"presentation_index":6,"clique_size":217,"graph_size":1000,"graphs_couple":["0035_N1000_K0217_CLIQUE","0012_N1000_K0217_NOCLIQUE"],"trial_type":"audio-keyboard-response","trial_index":63,"time_elapsed":52262,"internal_node_id":"0.0-55.0-0.0-1.0"},{"rt":1119,"response":"arrowleft","nodes_order":[24,571,525,995,531,524,128,98,520,285,272,698,798,538,7,210,368,32,320,155,117,638,125,839,40,675,761,329,345,911,587,95,268,685,436,582,82,779,438,687,152,50,388,432,347,249,697,216,453,57,902,942,148,261,831,990,504,315,974,93,298,212,690,187,479,867,486,34,567,517,642,444,165,854,532,923,680,651,548,636,134,706,456,702,240,476,142,900,37,879,222,507,735,914,720,752,654,812,207,872,17,653,763,604,399,295,89,311,76,616,925,646,975,395,229,792,49,169,944,834,324,519,607,442,257,9,262,59,357,593,739,837,810,102,511,73,986,830,596,407,282,930,378,972,346,677,481,337,75,673,627,394,287,371,218,512,894,547,756,584,496,508,689,10,939,530,124,754,291,715,182,317,502,419,788,66,896,545,380,658,967,500,482,200,561,341,29,844,795,912,430,279,412,296,300,197,217,899,431,68,360,233,299,676,410,336,305,400,480,824,220,781,236,64,797,622,103,660,610,600,289,241,916,176,843,274,354,78,179,945,630,745,936,823,369,381,258,252,741,123,107,985,888,621,301,63,806,259,167,62,999,573,828,15,110,418,527,841,509,253,542,265,759,55,927,859,328,552,874,310,308,242,850,2,987,326,549,966,423,576,372,515,437,608,811,579,755,189,277,342,141,770,829,948,290,458,674,897,150,787,195,753,460,585,389,907,522,398,820,8,599,946,254,615,172,421,959,953,813,492,488,131,569,284,318,963,809,533,864,111,41,316,989,190,48,796,950,175,871,198,731,842,598,415,35,875,203,750,780,478,225,726,171,413,199,69,883,156,738,647,483,433,861,489,151,145,0,625,5,602,178,892,659,983,185,505,629,174,13,619,768,130,940,906,931,575,664,451,154,868,228,469,727,22,583,934,847,814,25,466,364,617,805,734,440,852,230,140,637,374,138,446,992,772,245,461,136,746,570,321,114,260,97,303,464,99,81,266,213,427,721,327,611,214,27,143,86,821,514,976,849,455,226,353,506,147,21,184,355,774,162,909,701,873,534,79,586,113,352,568,408,255,724,656,53,14,713,87,626,237,435,723,61,733,100,991,744,957,491,77,205,994,350,247,818,869,678,396,717,722,393,271,234,139,815,307,221,591,643,426,137,825,612,952,882,293,554,144,856,516,684,938,19,960,645,783,929,937,605,947,558,543,1,362,595,401,417,173,836,620,773,457,973,465,846,186,794,90,302,33,764,243,386,256,956,808,650,193,691,838,649,997,359,231,793,275,860,682,416,36,817,762,439,885,450,765,887,541,740,3,564,414,43,449,826,339,70,833,572,968,540,166,862,4,790,714,434,716,129,639,891,758,827,278,428,943,424,206,703,159,551,699,44,910,104,121,180,518,294,777,728,628,578,244,965,563,115,239,711,105,565,921,789,361,732,915,594,120,672,845,370,18,224,343,202,280,853,42,376,980,624,708,38,149,580,663,46,652,26,807,633,411,632,669,283,635,227,747,918,160,30,898,384,769,926,170,452,662,314,704,334,589,219,996,23,51,903,135,215,312,528,712,109,331,161,108,332,474,634,39,94,297,613,951,306,319,766,313,889,550,201,695,886,597,979,475,742,609,816,865,878,933,588,819,962,133,984,782,493,441,686,855,356,941,681,56,949,982,884,574,501,92,693,922,553,344,661,700,521,47,710,978,235,405,555,58,641,971,804,866,924,487,858,181,409,146,264,998,928,667,935,157,603,719,751,391,778,84,771,725,529,88,893,592,467,31,238,158,445,917,857,375,590,96,392,964,377,988,644,403,248,546,791,526,631,188,387,737,163,358,118,72,85,535,498,204,112,803,890,276,696,977,499,473,993,330,52,832,192,349,348,101,45,784,468,707,556,692,335,270,614,382,913,168,402,209,513,425,901,623,679,786,801,709,448,373,443,286,269,490,848,367,383,840,292,363,683,351,71,304,379,273,223,80,655,288,743,895,760,920,705,232,969,309,406,116,485,16,429,981,835,83,194,932,183,323,477,191,65,539,333,904,877,263,870,404,497,822,665,908,503,463,74,729,736,281,537,970,640,462,775,718,536,459,919,250,958,366,876,267,126,749,322,730,208,54,881,688,340,251,544,851,668,385,955,494,153,800,510,799,119,106,757,648,91,484,122,11,12,880,6,495,127,657,454,562,601,670,420,28,748,557,67,694,422,954,472,776,397,581,785,606,566,666,196,471,905,767,60,577,560,447,246,365,802,132,164,211,390,863,177,470,961,671,559,523,338,20,618,325],"correct_response":"arrowleft","correct":true,"block_index":0,"presentation_index":7,"clique_size":217,"graph_size":1000,"graphs_couple":["0076_N1000_K0217_CLIQUE","0084_N1000_K0217_NOCLIQUE"],"trial_type":"canvas-keyboard-response","trial_index":64,"time_elapsed":54236,"internal_node_id":"0.0-56.0-0.0-0.0"},{"rt":null,"stimulus":"audio_feedback/right/coin01.mp3","response":null,"block_index":0,"presentation_index":7,"clique_size":217,"graph_size":1000,"graphs_couple":["0076_N1000_K0217_CLIQUE","0084_N1000_K0217_NOCLIQUE"],"trial_type":"audio-keyboard-response","trial_index":65,"time_elapsed":55222,"internal_node_id":"0.0-56.0-0.0-1.0"},{"rt":522,"response":"arrowright","nodes_order":[946,994,103,773,34,275,890,564,137,97,880,423,433,246,939,432,163,480,37,995,654,753,535,485,214,128,234,150,695,604,424,111,477,855,394,820,932,838,179,912,117,836,909,165,556,647,879,963,357,603,264,522,280,779,986,440,184,619,315,511,341,421,195,207,800,587,745,339,686,298,425,811,599,14,416,419,464,847,99,87,906,895,540,990,233,299,492,662,651,312,803,883,645,488,515,631,413,728,296,884,938,430,332,620,417,379,402,293,547,25,784,770,758,41,495,33,813,66,659,978,805,606,818,497,213,560,391,270,406,563,559,806,201,954,897,688,761,736,404,856,468,907,242,953,854,261,894,988,787,701,943,68,904,525,478,827,210,658,950,258,20,824,815,660,669,808,881,390,255,830,546,254,5,634,924,491,448,896,859,465,807,147,8,125,731,500,782,188,219,801,407,580,655,414,290,987,516,642,78,46,327,141,568,152,400,685,286,305,307,493,597,90,576,119,732,56,149,194,277,674,961,434,530,983,183,844,593,483,567,452,791,998,967,28,108,313,450,52,592,948,984,487,166,362,757,426,727,774,980,283,831,922,118,67,134,991,652,510,935,853,788,562,919,700,356,875,387,211,771,442,157,24,200,269,59,138,823,231,229,882,796,351,765,768,552,798,441,292,864,543,148,611,369,826,644,176,187,741,83,726,789,575,196,742,942,297,534,98,549,365,615,220,692,997,759,832,517,577,308,209,650,13,795,956,49,164,917,318,350,725,871,941,914,373,721,235,204,212,508,73,643,858,696,88,457,538,16,589,266,9,317,739,7,489,738,989,707,479,405,551,709,265,886,976,198,336,322,80,61,289,248,512,694,0,372,714,683,12,439,223,578,600,608,159,300,675,929,364,385,272,218,175,729,240,664,348,588,445,377,31,91,446,724,869,367,438,335,203,892,43,252,812,456,921,455,303,822,513,734,21,595,755,716,122,629,519,370,863,740,641,36,333,555,964,429,178,132,870,376,616,715,185,565,927,949,749,699,244,970,191,865,62,29,368,363,635,260,75,799,656,632,104,197,129,381,777,617,473,558,570,735,47,848,778,238,581,852,23,910,885,712,630,113,866,285,225,628,72,937,19,722,460,70,1,48,843,131,915,520,940,274,533,82,743,273,821,585,169,345,930,306,463,767,975,671,705,835,947,690,76,809,605,143,361,817,693,780,971,158,825,472,612,123,678,614,748,697,781,57,353,71,321,764,156,30,507,718,676,15,410,677,431,627,703,268,160,804,544,861,923,872,999,849,814,284,93,610,232,35,638,682,841,182,670,224,746,719,521,259,60,347,53,139,174,965,420,639,648,399,383,548,793,155,763,860,281,389,702,388,891,981,653,451,409,584,3,916,752,572,925,6,680,251,537,4,744,536,687,173,974,523,957,352,106,640,498,505,202,153,833,133,190,649,206,573,762,840,319,32,461,340,710,329,444,22,411,672,401,920,245,828,955,38,291,475,45,931,756,760,952,898,81,482,181,810,933,959,395,829,877,262,968,42,121,503,39,470,462,494,55,192,44,837,661,663,100,216,250,282,514,189,689,328,751,26,393,40,776,338,301,278,84,380,435,69,857,237,337,334,733,167,504,496,64,382,484,79,819,839,636,951,977,226,622,720,467,618,785,903,95,161,571,63,657,969,583,684,130,802,10,107,601,114,918,936,466,992,539,140,415,528,529,343,396,375,378,972,867,222,792,797,418,609,243,355,623,668,247,208,613,230,50,180,766,58,783,65,532,172,851,239,115,228,287,868,168,136,330,966,673,502,711,279,730,109,295,459,110,960,54,569,304,775,458,506,371,267,667,889,392,747,786,834,626,162,633,945,646,449,253,899,665,412,85,186,862,893,586,553,596,476,926,794,754,905,526,309,271,323,311,790,124,217,501,331,561,681,443,294,227,876,531,723,625,310,170,469,398,154,499,579,979,384,320,902,2,582,241,944,888,982,89,873,447,973,993,590,598,557,205,17,845,591,408,422,698,750,221,621,135,874,256,541,397,146,96,120,934,342,772,316,18,346,374,193,901,326,116,86,454,77,527,344,453,74,816,359,486,324,542,249,846,566,481,554,263,518,490,691,713,127,27,126,524,112,92,325,602,354,51,428,436,144,958,11,366,403,102,913,427,199,471,887,94,314,607,842,288,704,509,545,550,985,151,737,911,574,706,437,624,145,349,996,769,928,708,594,962,177,276,637,717,142,878,666,850,900,908,474,101,236,302,386,105,171,679,257,215,360,358],"correct_response":"arrowright","correct":true,"block_index":0,"presentation_index":8,"clique_size":200,"graph_size":1000,"graphs_couple":["0017_N1000_K0200_NOCLIQUE","0007_N1000_K0200_CLIQUE"],"trial_type":"canvas-keyboard-response","trial_index":66,"time_elapsed":56651,"internal_node_id":"0.0-57.0-0.0-0.0"},{"rt":null,"stimulus":"audio_feedback/right/coin01.mp3","response":null,"block_index":0,"presentation_index":8,"clique_size":200,"graph_size":1000,"graphs_couple":["0017_N1000_K0200_NOCLIQUE","0007_N1000_K0200_CLIQUE"],"trial_type":"audio-keyboard-response","trial_index":67,"time_elapsed":57641,"internal_node_id":"0.0-57.0-0.0-1.0"},{"rt":535,"response":"arrowleft","nodes_order":[26,295,991,799,376,876,556,211,934,930,651,92,887,71,781,594,39,452,524,537,907,909,661,860,215,897,286,139,489,99,969,654,325,321,746,616,313,944,864,932,98,296,644,303,683,496,508,221,533,776,213,161,230,893,535,97,266,631,373,521,972,432,471,22,44,379,307,561,120,726,700,987,441,51,804,765,570,685,595,798,850,304,144,423,978,252,167,647,294,768,554,427,395,782,825,61,437,330,418,549,355,526,205,176,711,90,60,483,707,953,358,737,783,998,122,626,741,377,300,207,740,238,954,811,884,481,514,722,474,720,874,409,935,311,151,233,306,618,444,881,823,245,6,467,52,270,243,222,591,545,702,254,10,904,773,657,731,232,494,505,317,268,573,656,824,560,662,257,365,50,263,49,201,108,540,598,793,114,947,992,828,749,805,178,948,488,279,33,555,604,708,369,194,43,719,528,24,346,137,94,977,989,880,249,276,264,347,577,459,34,635,820,35,79,748,753,676,491,9,965,575,863,398,546,186,784,814,389,468,732,111,693,212,416,572,498,4,228,927,38,327,236,898,117,713,645,736,596,968,794,764,191,208,691,996,36,653,190,629,931,682,32,636,912,256,7,458,173,70,76,673,381,836,81,31,809,226,584,310,224,849,326,523,454,322,621,906,48,463,671,101,231,11,889,338,759,435,154,659,255,318,393,23,532,688,858,637,835,758,102,18,75,475,856,3,896,791,515,999,511,665,886,698,966,281,903,363,899,894,994,681,689,588,486,800,335,378,258,699,710,509,754,857,620,315,216,388,869,142,580,138,854,469,356,926,278,641,582,477,763,479,712,197,679,490,743,590,41,419,633,779,195,429,126,669,148,179,89,131,91,696,439,198,815,451,928,349,812,879,851,747,387,185,462,359,847,655,941,1,624,564,56,172,757,234,413,619,802,156,751,563,364,386,155,845,865,752,792,143,769,642,979,63,55,397,649,95,107,775,925,760,890,182,718,12,778,826,875,725,771,921,610,949,767,643,663,277,522,675,145,813,790,350,727,714,920,124,323,484,601,336,87,192,402,801,605,42,58,456,742,544,680,848,396,403,609,482,375,181,210,251,30,316,955,640,410,772,353,421,592,946,690,734,995,225,366,924,337,739,405,391,135,110,404,105,193,504,293,866,762,408,988,534,320,69,888,686,831,305,141,93,603,900,460,214,666,877,219,510,109,574,839,937,940,518,821,414,829,938,112,411,539,217,357,984,426,229,165,457,385,127,372,971,448,133,623,724,13,199,466,670,891,384,5,697,235,485,838,963,834,625,66,589,285,664,599,756,267,237,445,960,86,606,153,516,442,795,352,701,476,905,495,239,956,382,184,340,622,908,480,82,852,204,261,46,334,646,962,981,118,250,64,271,53,939,308,976,967,513,986,997,819,106,209,868,843,840,841,627,502,440,104,280,902,275,136,0,125,45,269,822,433,28,162,134,639,547,73,116,412,527,785,853,59,455,677,129,818,497,952,548,587,370,331,160,717,507,788,344,878,80,789,530,67,531,552,169,450,164,551,282,20,103,415,993,816,298,950,367,745,465,943,348,568,72,553,166,223,957,674,241,855,374,652,571,827,735,84,750,312,982,833,602,936,630,65,206,371,550,399,916,14,797,314,929,684,342,83,755,163,446,871,17,37,428,506,517,291,557,390,614,438,945,837,859,558,74,706,774,729,274,146,473,329,761,177,175,567,970,780,974,668,244,265,581,566,867,196,383,715,85,394,980,586,200,733,417,289,240,846,443,341,961,695,425,287,660,332,975,464,284,78,407,487,40,147,431,246,569,152,368,183,810,611,309,672,121,882,434,283,542,100,892,324,777,951,302,392,617,873,913,694,128,959,354,401,565,478,2,607,766,638,328,29,77,430,424,449,171,692,562,728,470,985,883,541,503,119,500,807,453,842,576,786,351,15,716,180,292,158,187,319,538,19,262,130,140,360,583,830,345,361,628,8,933,132,942,632,150,923,62,817,57,272,157,113,260,188,870,536,436,709,68,168,297,958,220,339,559,290,901,667,808,242,744,678,650,922,600,248,343,585,422,915,273,520,253,27,512,420,973,54,703,406,400,123,115,658,227,202,844,648,787,333,705,447,47,170,529,911,687,796,832,910,918,247,525,88,380,634,593,493,203,301,519,597,149,721,174,917,159,288,579,990,885,25,738,299,461,723,501,770,543,96,492,919,615,872,964,803,806,730,895,259,613,983,189,914,472,608,861,704,362,16,578,612,21,499,218,862],"correct_response":"arrowleft","correct":true,"block_index":0,"presentation_index":9,"clique_size":200,"graph_size":1000,"graphs_couple":["0041_N1000_K0200_CLIQUE","0005_N1000_K0200_NOCLIQUE"],"trial_type":"canvas-keyboard-response","trial_index":68,"time_elapsed":59065,"internal_node_id":"0.0-58.0-0.0-0.0"},{"rt":null,"stimulus":"audio_feedback/right/coin01.mp3","response":null,"block_index":0,"presentation_index":9,"clique_size":200,"graph_size":1000,"graphs_couple":["0041_N1000_K0200_CLIQUE","0005_N1000_K0200_NOCLIQUE"],"trial_type":"audio-keyboard-response","trial_index":69,"time_elapsed":60062,"internal_node_id":"0.0-58.0-0.0-1.0"},{"rt":548,"response":"arrowleft","nodes_order":[551,771,361,569,806,140,497,632,271,910,206,946,872,905,67,429,191,409,423,169,92,168,187,112,578,100,283,529,325,387,382,757,930,720,495,714,728,353,369,735,256,97,614,929,0,450,483,200,108,398,352,447,318,317,849,316,752,337,901,315,468,129,20,603,977,513,290,373,116,344,661,921,22,355,980,136,936,372,209,144,994,545,303,774,226,296,7,32,680,776,652,26,47,177,460,699,196,926,639,40,397,13,891,127,810,180,724,496,809,953,299,34,927,888,456,775,616,672,269,377,920,404,601,794,597,185,199,370,146,904,347,514,443,877,74,279,792,327,604,537,827,880,487,424,837,526,358,864,985,472,762,928,94,431,716,755,869,198,411,8,518,829,562,788,945,713,912,239,282,335,677,991,482,660,697,157,875,992,990,231,750,203,86,29,552,873,886,38,234,500,24,85,25,396,477,576,950,786,734,586,804,366,952,152,623,565,651,148,665,238,312,406,938,783,575,834,744,561,766,602,405,871,175,626,621,812,359,364,125,83,106,624,348,876,72,502,874,75,267,45,492,678,263,179,730,451,777,947,579,227,274,830,84,383,841,770,973,695,428,217,414,590,620,323,225,306,853,858,46,37,969,889,557,751,412,3,371,534,163,376,979,801,188,321,170,784,275,813,165,399,266,758,15,471,767,796,541,719,80,28,494,726,167,58,508,693,314,535,505,709,50,149,284,14,568,893,625,334,488,984,446,338,56,4,818,683,833,584,379,679,2,354,592,71,253,222,442,673,609,765,965,430,211,41,480,596,291,941,143,224,308,740,295,756,961,319,154,221,504,825,422,538,18,98,12,69,288,831,183,712,692,195,90,668,764,96,748,401,939,942,704,491,674,589,68,808,349,838,800,192,281,707,474,368,839,189,850,847,667,836,380,240,958,637,302,530,104,390,733,115,581,574,593,627,6,754,498,320,147,531,641,778,544,615,840,662,55,646,435,339,473,959,543,863,859,694,333,684,591,737,723,304,311,389,268,362,527,445,138,922,866,54,244,797,123,706,252,854,499,367,64,65,392,573,265,213,95,895,11,39,126,27,479,145,879,421,158,351,687,137,470,564,671,560,598,717,964,682,916,881,583,419,375,485,606,391,441,233,467,151,255,62,490,982,113,608,341,957,997,294,870,402,986,332,1,133,553,703,539,114,298,301,549,532,484,517,214,489,119,698,824,305,53,215,852,567,82,340,769,142,278,963,882,701,743,210,91,107,444,159,101,935,822,310,811,150,503,326,388,995,631,949,900,121,618,232,897,449,989,164,277,120,542,815,782,956,675,181,739,805,160,860,218,906,741,493,270,845,229,89,262,580,803,844,817,878,670,736,996,374,781,729,525,708,975,599,600,647,582,324,21,287,907,915,202,280,515,940,638,478,785,249,892,954,247,976,974,780,235,102,988,124,415,666,816,309,331,970,634,690,653,407,779,643,773,440,292,328,481,345,501,745,772,857,259,516,5,798,523,619,261,731,747,648,171,70,204,710,176,612,842,365,909,246,118,237,286,356,197,951,640,19,166,228,190,742,276,386,194,250,820,186,122,555,103,346,461,297,681,257,436,649,111,722,130,44,657,868,787,700,413,903,588,960,885,329,528,749,655,66,685,289,420,207,343,357,162,81,438,814,42,173,536,759,570,656,105,821,109,394,613,902,998,669,486,506,293,696,522,768,220,260,264,642,475,384,434,426,856,883,563,955,457,10,73,937,884,702,30,721,862,469,823,393,272,630,548,242,658,76,924,763,178,99,230,416,174,216,540,917,363,554,432,918,628,594,519,134,63,385,855,93,645,932,636,914,459,17,633,462,978,61,33,418,463,117,894,607,558,933,753,57,972,919,799,466,464,156,139,611,512,688,761,948,725,313,110,635,981,241,832,617,336,403,968,793,78,330,962,251,622,172,908,664,807,23,911,182,746,79,395,132,898,659,507,789,944,971,521,983,243,802,577,890,559,605,205,610,711,943,131,258,819,738,966,791,520,43,212,155,987,654,285,208,201,452,254,153,60,184,300,458,455,650,437,427,571,16,161,378,967,448,923,400,846,550,913,509,867,88,566,689,663,999,585,732,851,135,715,533,511,993,828,219,465,322,547,417,843,425,36,9,52,410,350,524,790,223,556,307,510,31,718,865,193,245,546,59,705,87,861,381,360,848,691,676,835,236,141,476,128,439,35,686,629,77,595,887,760,896,644,899,248,454,48,273,727,931,795,433,342,826,925,934,453,51,408,49,572,587],"correct_response":"arrowleft","correct":true,"block_index":0,"presentation_index":10,"clique_size":183,"graph_size":1000,"graphs_couple":["0031_N1000_K0183_CLIQUE","0097_N1000_K0183_NOCLIQUE"],"trial_type":"canvas-keyboard-response","trial_index":70,"time_elapsed":61518,"internal_node_id":"0.0-59.0-0.0-0.0"},{"rt":null,"stimulus":"audio_feedback/right/coin01.mp3","response":null,"block_index":0,"presentation_index":10,"clique_size":183,"graph_size":1000,"graphs_couple":["0031_N1000_K0183_CLIQUE","0097_N1000_K0183_NOCLIQUE"],"trial_type":"audio-keyboard-response","trial_index":71,"time_elapsed":62501,"internal_node_id":"0.0-59.0-0.0-1.0"},{"rt":748,"response":"arrowleft","nodes_order":[277,248,688,6,371,634,286,657,527,703,406,825,348,466,605,301,460,487,423,815,735,19,261,34,829,957,294,619,845,44,35,329,798,444,446,508,658,93,935,525,469,264,163,426,271,649,569,401,765,500,230,803,618,878,276,809,633,376,870,272,834,494,327,235,119,616,158,403,430,306,40,918,284,106,473,622,443,490,693,983,275,985,198,761,114,913,362,341,129,194,608,155,130,790,153,728,752,366,270,41,924,656,520,833,532,799,522,238,730,83,69,934,138,241,76,505,375,966,855,30,955,796,757,226,921,777,559,905,374,541,134,762,28,71,867,654,998,405,788,673,206,517,940,768,895,237,597,166,956,613,961,203,459,18,37,690,141,533,767,189,647,972,718,454,711,208,350,471,90,300,383,384,74,996,126,482,779,540,243,120,139,436,359,806,661,220,783,960,936,546,342,289,173,782,859,265,13,131,234,549,317,455,590,94,450,707,797,990,648,218,429,772,708,78,882,643,50,414,245,165,497,995,183,39,785,117,84,795,400,280,498,116,47,668,33,521,358,697,884,437,188,353,299,787,784,817,133,502,822,207,219,887,252,938,967,344,96,397,380,151,236,253,196,987,22,610,181,251,48,620,122,254,467,719,663,325,582,573,434,611,63,617,589,493,786,888,820,215,23,308,536,927,216,953,592,979,760,332,86,231,149,692,240,531,82,373,947,942,861,818,952,59,447,259,244,678,267,512,535,756,488,382,99,109,571,303,8,390,653,478,372,715,712,412,585,477,137,282,394,780,314,791,305,156,132,416,420,310,557,313,897,484,195,602,994,560,127,105,169,706,421,210,928,229,337,547,322,917,898,748,523,178,159,150,925,561,205,278,257,281,499,148,986,363,3,439,951,485,630,388,323,635,813,903,404,356,838,475,73,789,351,982,958,886,889,349,642,453,491,75,626,551,727,249,598,293,395,175,725,190,263,628,991,113,51,449,247,655,950,170,606,167,750,751,640,391,682,801,214,424,537,311,555,222,103,144,959,92,749,107,904,52,456,227,410,171,764,38,367,118,937,563,56,567,769,347,843,440,11,720,185,962,766,110,246,857,974,209,379,361,135,381,481,877,828,836,335,77,108,184,883,64,95,939,285,652,849,980,890,920,723,239,841,123,32,746,666,187,899,495,736,701,744,365,154,804,565,554,225,146,392,288,812,256,36,691,544,729,162,650,601,408,930,852,864,550,57,664,853,333,174,442,669,510,448,689,492,364,468,587,283,714,615,315,977,993,507,5,564,506,922,916,869,258,516,665,999,128,776,722,398,483,318,885,734,14,262,297,186,345,145,816,518,901,461,192,824,932,136,396,827,802,465,519,667,831,874,856,914,745,945,180,489,340,387,847,775,644,963,731,570,480,636,418,988,339,584,844,273,464,101,378,268,232,747,250,624,472,211,915,651,91,685,908,124,840,865,269,717,67,470,881,607,600,290,458,713,433,357,609,807,331,260,452,739,866,826,445,415,298,770,742,88,880,66,574,538,20,862,675,699,80,479,524,586,641,997,679,879,29,805,680,72,191,542,513,228,326,514,774,112,677,738,975,125,800,336,758,694,474,217,197,981,355,558,933,504,676,577,737,593,7,581,16,612,695,743,556,15,552,279,868,100,43,377,572,161,863,740,61,793,486,97,794,810,4,632,157,846,53,583,578,912,304,98,553,104,929,902,529,848,659,721,548,814,662,451,733,792,152,46,476,625,25,501,944,946,509,842,496,992,726,27,213,545,302,773,900,965,710,422,753,968,778,221,646,566,674,164,823,24,309,832,200,599,875,671,948,705,754,307,346,292,623,830,369,143,978,562,409,604,621,233,931,312,330,515,819,526,984,177,389,638,591,771,568,199,741,111,463,321,274,858,413,579,81,763,660,702,242,296,683,709,943,223,872,115,603,896,102,704,385,142,172,970,316,295,68,419,354,70,907,919,894,266,320,62,926,973,511,851,386,837,338,941,201,700,911,672,393,204,319,79,431,854,503,639,31,58,328,670,580,425,543,850,835,637,49,402,89,627,368,193,407,892,360,287,291,534,976,716,811,352,65,55,9,696,969,26,45,971,873,343,417,596,438,168,860,12,588,10,698,255,87,428,909,0,1,576,629,595,432,435,54,60,21,891,575,160,923,2,732,462,202,781,334,399,85,121,910,212,370,530,821,989,949,755,687,954,871,645,324,411,457,528,441,140,839,686,182,179,964,147,427,594,759,614,224,539,681,876,42,684,808,893,906,176,17,724,631],"correct_response":"arrowleft","correct":true,"block_index":0,"presentation_index":11,"clique_size":183,"graph_size":1000,"graphs_couple":["0094_N1000_K0183_CLIQUE","0065_N1000_K0183_NOCLIQUE"],"trial_type":"canvas-keyboard-response","trial_index":72,"time_elapsed":64160,"internal_node_id":"0.0-60.0-0.0-0.0"},{"rt":null,"stimulus":"audio_feedback/right/coin01.mp3","response":null,"block_index":0,"presentation_index":11,"clique_size":183,"graph_size":1000,"graphs_couple":["0094_N1000_K0183_CLIQUE","0065_N1000_K0183_NOCLIQUE"],"trial_type":"audio-keyboard-response","trial_index":73,"time_elapsed":65161,"internal_node_id":"0.0-60.0-0.0-1.0"},{"rt":520,"response":"arrowleft","nodes_order":[325,41,392,634,532,407,792,921,359,592,896,894,312,65,627,457,131,60,756,310,766,295,748,527,617,440,519,287,494,245,439,754,724,707,681,99,352,667,799,968,902,350,853,869,545,664,504,34,575,235,785,560,157,147,207,811,647,958,944,376,931,712,197,270,924,69,318,429,877,191,899,915,435,721,123,548,326,657,342,583,68,443,816,50,752,183,8,273,699,260,688,212,585,250,473,219,623,331,844,669,794,479,201,784,4,358,254,520,943,206,455,558,676,658,319,113,577,298,198,459,903,891,471,24,950,600,495,518,675,282,90,66,653,116,140,467,856,21,694,323,572,159,285,762,665,89,962,151,632,445,595,194,960,728,418,531,941,508,847,169,637,703,451,717,861,786,349,906,264,739,683,956,954,729,705,602,798,812,922,45,223,137,670,156,695,783,929,529,842,76,771,621,823,97,47,92,101,991,788,994,57,516,591,710,895,662,338,108,890,303,912,782,547,535,386,128,404,578,837,525,17,633,930,889,363,546,138,184,454,302,663,155,452,369,124,6,734,11,800,238,983,698,461,995,130,176,477,348,863,210,629,765,293,976,542,827,807,269,444,605,716,453,737,972,787,217,512,804,677,305,880,913,971,314,380,228,690,241,693,396,204,341,417,236,172,86,608,530,25,259,597,205,218,308,689,776,992,149,379,456,959,5,940,373,316,985,730,425,276,528,579,195,186,639,84,132,884,650,288,817,759,697,803,886,153,209,805,660,432,95,755,279,767,588,503,745,262,220,281,824,772,857,227,345,247,465,200,378,311,599,88,80,522,105,104,53,601,981,397,988,671,851,315,989,249,587,598,611,255,59,779,586,9,327,935,16,551,781,969,740,876,427,613,423,145,887,450,135,687,168,723,299,736,109,726,763,7,394,926,626,125,395,965,513,917,115,37,361,428,951,44,478,470,900,938,313,142,181,925,364,431,75,372,409,300,463,64,964,904,72,162,23,511,203,306,996,735,679,83,640,700,167,609,818,862,867,188,565,957,248,114,622,741,955,563,231,177,193,384,517,651,620,389,978,644,469,672,252,224,277,668,523,179,284,831,898,581,573,174,719,263,381,382,750,953,556,826,18,82,773,256,286,146,610,702,814,430,673,845,631,918,590,165,744,368,910,106,160,684,549,743,489,158,67,757,38,500,449,170,552,718,567,883,946,351,343,555,911,365,107,796,801,952,475,509,166,841,738,849,654,646,438,226,136,497,329,268,538,498,401,77,357,390,604,492,780,112,747,541,797,102,948,161,819,514,332,291,927,134,774,22,967,561,393,722,58,290,360,854,13,244,464,301,355,945,872,415,448,574,374,265,322,48,733,778,834,412,187,696,839,618,830,564,879,30,246,242,526,442,496,486,606,480,815,28,878,15,534,320,336,648,725,979,485,411,476,237,557,144,234,122,571,416,832,2,426,328,777,462,506,280,36,173,422,933,507,852,353,294,347,20,333,501,949,214,148,966,892,257,354,914,936,569,808,850,403,111,297,638,742,666,283,881,711,141,636,659,753,907,54,46,437,129,317,768,3,73,970,998,905,185,385,27,211,813,843,678,789,189,304,893,864,624,225,70,29,795,615,91,117,81,482,110,243,829,536,770,731,840,222,674,481,366,790,261,324,271,275,706,932,594,882,420,274,656,175,691,484,419,405,652,321,630,119,42,761,362,714,499,553,400,51,278,100,619,720,825,346,643,337,524,543,436,383,835,570,71,865,388,686,866,576,143,408,472,974,93,793,208,466,614,939,589,488,888,987,410,94,977,139,307,213,947,758,56,103,846,216,692,441,855,661,272,833,468,859,874,533,593,340,493,335,848,192,43,127,764,961,997,196,828,152,413,61,126,928,544,984,230,540,603,367,607,35,33,0,775,40,836,458,901,760,701,292,942,871,934,98,897,566,515,39,908,680,873,78,52,289,580,96,12,625,802,371,487,715,330,582,356,655,641,505,860,920,266,559,31,562,809,791,180,999,704,596,749,870,539,163,85,171,344,769,74,334,258,154,232,202,713,1,406,398,645,810,229,709,806,296,55,584,502,909,433,240,309,377,414,434,919,916,975,973,885,239,253,474,820,79,32,963,628,993,62,550,746,821,375,635,370,26,447,251,982,215,727,923,424,150,133,199,118,182,491,391,483,399,49,682,858,875,751,685,87,421,980,986,233,612,460,838,616,10,339,63,387,554,446,642,19,120,937,190,490,568,708,521,14,402,267,649,732,868,164,822,510,537,990,121,178,221],"correct_response":"arrowleft","correct":true,"block_index":0,"presentation_index":12,"clique_size":167,"graph_size":1000,"graphs_couple":["0048_N1000_K0167_CLIQUE","0015_N1000_K0167_NOCLIQUE"],"trial_type":"canvas-keyboard-response","trial_index":74,"time_elapsed":66595,"internal_node_id":"0.0-61.0-0.0-0.0"},{"rt":null,"stimulus":"audio_feedback/right/coin01.mp3","response":null,"block_index":0,"presentation_index":12,"clique_size":167,"graph_size":1000,"graphs_couple":["0048_N1000_K0167_CLIQUE","0015_N1000_K0167_NOCLIQUE"],"trial_type":"audio-keyboard-response","trial_index":75,"time_elapsed":67582,"internal_node_id":"0.0-61.0-0.0-1.0"},{"rt":791,"response":"arrowleft","nodes_order":[67,756,472,288,744,930,102,461,442,277,87,600,624,426,708,121,766,32,440,848,885,816,122,19,500,7,471,374,430,524,855,772,782,473,379,713,904,489,376,863,409,702,979,992,467,226,666,681,382,405,864,172,10,908,342,400,190,179,993,877,843,247,348,295,918,726,263,437,18,629,921,884,813,660,50,740,690,836,215,319,496,224,181,111,939,491,599,670,48,538,641,89,194,29,514,966,68,555,55,280,609,81,588,148,906,91,457,888,914,205,286,648,761,275,911,165,304,140,245,2,841,359,596,545,985,732,132,0,606,366,493,470,743,818,448,220,820,402,788,795,525,680,399,96,217,806,915,189,118,693,584,580,72,669,784,146,329,520,733,43,137,969,512,671,674,547,372,944,24,285,809,800,418,391,644,109,785,299,968,80,324,912,796,776,323,9,227,562,128,769,446,880,996,436,230,528,991,143,270,900,3,834,170,421,707,745,722,655,469,255,53,484,803,207,928,735,831,948,695,73,554,163,465,479,28,755,903,808,119,268,425,986,565,411,222,317,676,587,541,434,709,219,923,595,248,559,530,974,533,12,577,617,265,790,11,651,664,857,94,727,191,614,450,946,242,162,699,300,543,378,357,951,754,441,572,886,804,483,927,792,832,284,239,582,936,154,536,935,499,758,375,365,211,994,1,688,296,167,716,509,913,114,244,896,98,558,371,868,569,155,673,945,290,188,510,828,777,452,583,159,208,316,192,420,497,794,326,573,95,715,947,347,553,694,110,355,397,90,971,107,336,959,241,78,257,38,730,839,117,424,615,129,428,387,854,920,659,236,649,926,340,507,310,869,876,153,830,338,438,937,100,462,689,35,5,164,197,37,502,278,14,447,45,942,787,620,486,594,262,120,824,922,627,561,31,60,611,362,571,995,853,294,747,231,477,276,723,625,652,328,724,850,468,639,256,261,178,781,883,619,563,287,812,416,113,88,768,334,169,458,623,837,39,138,943,675,384,517,779,417,49,989,719,413,308,750,729,62,827,229,302,84,34,957,212,281,136,955,661,460,878,964,273,866,152,246,621,407,307,332,218,721,180,814,597,292,677,909,701,237,214,762,346,26,960,846,858,938,970,386,267,934,415,501,175,773,586,593,232,901,798,85,151,829,233,714,249,653,505,353,445,283,997,492,513,976,984,697,890,705,608,905,603,335,195,238,482,811,859,575,871,269,704,144,279,360,932,791,404,30,637,682,429,873,17,423,202,564,613,819,313,131,825,443,881,250,266,570,557,767,352,786,196,728,741,626,298,41,439,646,551,383,663,633,628,258,503,527,13,115,840,849,851,124,742,174,25,576,240,720,548,381,797,703,306,6,52,585,54,272,51,356,158,79,390,199,101,345,940,898,526,508,807,640,658,552,150,706,605,455,961,919,147,598,454,631,125,678,924,835,802,634,622,364,301,123,506,389,498,847,104,343,712,941,235,753,432,331,160,431,752,632,27,305,21,206,860,476,710,895,456,63,97,396,972,127,887,861,567,844,369,980,8,815,738,630,522,289,322,488,173,982,380,157,771,574,862,76,293,805,481,225,687,363,312,665,22,133,71,449,521,549,23,15,954,949,325,692,187,485,403,642,978,929,149,698,86,361,717,77,297,749,822,616,910,303,463,370,875,253,203,539,775,734,683,504,737,550,401,894,47,975,759,799,515,36,638,899,344,377,566,821,161,354,209,40,636,254,774,672,643,667,537,998,987,395,243,751,950,892,691,823,66,392,412,700,213,126,591,696,592,711,337,466,610,973,990,490,156,320,542,193,388,958,435,130,42,725,879,83,560,981,176,487,933,907,534,602,618,931,556,578,604,433,422,763,234,889,801,916,271,495,414,511,967,309,590,464,444,532,529,826,540,116,953,315,480,341,223,810,177,546,474,394,535,478,184,770,333,330,75,398,475,983,74,358,16,459,870,731,765,61,201,314,58,718,650,33,406,686,106,494,419,139,662,166,408,251,327,647,891,349,789,183,601,523,833,581,867,274,516,264,793,198,963,427,321,134,186,182,783,385,221,778,185,200,451,956,856,453,373,736,817,589,654,108,393,318,872,865,351,902,367,645,44,228,4,842,518,544,142,57,897,112,965,519,92,838,568,141,780,684,291,579,845,59,748,999,210,988,917,852,56,46,760,216,531,607,70,65,656,635,350,168,882,311,103,171,668,204,339,145,977,925,410,252,962,739,612,874,69,82,757,746,105,685,764,893,99,657,64,368,93,260,282,679,952,259,20,135],"correct_response":"arrowleft","correct":true,"block_index":0,"presentation_index":13,"clique_size":167,"graph_size":1000,"graphs_couple":["0034_N1000_K0167_CLIQUE","0100_N1000_K0167_NOCLIQUE"],"trial_type":"canvas-keyboard-response","trial_index":76,"time_elapsed":69271,"internal_node_id":"0.0-62.0-0.0-0.0"},{"rt":null,"stimulus":"audio_feedback/right/coin01.mp3","response":null,"block_index":0,"presentation_index":13,"clique_size":167,"graph_size":1000,"graphs_couple":["0034_N1000_K0167_CLIQUE","0100_N1000_K0167_NOCLIQUE"],"trial_type":"audio-keyboard-response","trial_index":77,"time_elapsed":70261,"internal_node_id":"0.0-62.0-0.0-1.0"},{"rt":914,"response":"arrowright","nodes_order":[475,563,596,12,906,835,555,229,200,300,897,972,420,14,823,928,407,217,564,681,961,105,890,83,665,706,93,990,161,963,484,654,508,346,541,648,917,677,438,176,26,191,352,994,62,17,69,258,264,45,362,476,763,283,876,768,380,958,526,618,796,590,480,434,119,571,629,957,864,789,547,998,528,74,358,777,439,964,287,54,198,273,733,421,381,945,404,215,613,462,578,538,324,31,393,37,272,276,57,970,862,646,95,711,117,46,568,918,212,477,719,414,551,490,284,663,6,39,249,709,130,1,522,603,164,846,373,463,782,38,205,11,525,444,433,210,664,821,177,277,340,252,632,408,808,441,411,615,481,388,832,827,182,355,680,748,147,999,317,247,836,937,118,753,630,944,263,399,565,430,231,162,158,144,133,107,495,631,688,920,790,337,123,523,401,651,875,780,291,598,356,891,576,581,667,82,767,320,948,643,180,616,86,90,504,950,583,47,863,36,449,978,843,791,489,396,122,410,142,319,97,714,197,787,288,261,610,179,328,649,926,257,290,64,43,548,723,412,633,710,305,992,308,743,527,131,612,837,143,395,962,44,370,394,575,132,316,713,329,246,341,498,693,348,203,938,641,757,455,303,860,409,720,194,855,529,371,520,109,25,115,936,788,76,306,75,321,20,695,5,879,569,822,602,809,852,160,451,29,839,87,378,816,377,984,661,770,436,80,621,829,574,443,639,747,803,930,774,956,608,925,52,784,456,157,670,847,224,307,698,761,655,625,989,674,496,592,778,366,924,339,387,406,389,335,116,111,315,23,244,242,900,234,16,487,72,696,818,558,216,545,465,21,534,437,448,483,533,858,540,669,53,831,627,196,296,741,749,838,181,148,415,969,873,171,599,921,114,676,701,243,361,644,635,799,940,561,739,98,431,140,886,338,345,700,554,469,552,560,88,804,159,402,640,834,281,96,310,983,585,163,505,464,751,927,365,3,208,227,282,725,959,468,323,165,951,685,174,991,94,298,699,566,932,971,549,771,744,452,240,461,435,50,35,728,350,589,379,211,92,274,881,34,553,856,372,363,587,369,769,482,734,186,209,353,375,226,870,301,85,413,841,995,27,367,56,531,237,473,867,112,447,19,686,134,759,8,188,442,467,187,81,656,397,830,278,150,499,398,91,270,18,267,121,597,479,139,185,314,193,798,322,694,336,4,659,645,916,517,153,712,668,557,550,235,794,390,865,679,611,503,738,673,828,880,349,183,104,833,939,866,977,331,634,110,471,614,108,968,65,606,128,764,760,882,792,13,849,854,909,642,219,826,708,716,137,824,776,427,214,24,256,250,537,726,813,232,99,905,271,683,221,986,609,220,33,556,518,292,539,914,236,934,343,172,889,805,736,84,624,872,334,2,724,254,636,617,248,313,850,691,806,61,908,509,491,797,68,392,454,460,58,175,586,746,466,207,735,48,423,658,544,318,170,354,42,647,754,166,844,154,703,446,206,988,946,740,600,457,913,877,904,895,898,593,765,652,750,120,993,532,459,269,692,382,976,472,868,687,10,405,704,286,275,77,814,493,869,697,189,795,840,478,594,783,888,672,151,169,126,223,344,626,304,426,807,607,718,884,848,149,136,762,923,260,732,59,595,810,422,418,766,662,584,127,935,922,997,0,103,485,195,507,79,513,501,573,773,63,801,947,524,416,604,915,265,572,910,106,981,842,653,400,965,184,874,689,820,620,245,543,853,113,960,9,419,682,582,440,49,511,535,386,167,41,729,152,429,374,812,213,230,512,425,266,871,299,742,218,966,145,899,911,559,912,752,628,800,289,973,519,241,326,458,542,89,156,562,949,731,781,775,657,364,996,845,638,7,678,510,385,756,22,717,280,622,675,453,403,384,650,102,901,857,368,666,516,253,942,391,190,295,445,623,233,262,40,347,954,887,333,309,488,383,758,721,293,536,192,903,815,786,980,893,129,745,327,155,30,929,125,78,892,424,168,722,772,707,896,470,199,222,70,255,138,173,755,279,933,793,450,985,506,591,428,302,883,567,851,859,579,825,204,28,671,332,497,878,819,521,570,228,492,100,502,817,730,982,376,268,141,702,955,360,311,894,67,546,73,660,727,297,486,124,238,342,225,51,811,294,55,32,907,705,975,417,15,987,312,330,601,251,60,779,588,357,500,514,580,101,737,979,201,802,146,941,715,239,494,785,135,605,178,325,285,931,515,359,952,943,885,690,637,974,71,202,684,919,902,66,351,861,967,474,530,259,432,577,619,953],"correct_response":"arrowright","correct":true,"block_index":0,"presentation_index":14,"clique_size":150,"graph_size":1000,"graphs_couple":["0011_N1000_K0150_NOCLIQUE","0045_N1000_K0150_CLIQUE"],"trial_type":"canvas-keyboard-response","trial_index":78,"time_elapsed":72073,"internal_node_id":"0.0-63.0-0.0-0.0"},{"rt":null,"stimulus":"audio_feedback/right/coin01.mp3","response":null,"block_index":0,"presentation_index":14,"clique_size":150,"graph_size":1000,"graphs_couple":["0011_N1000_K0150_NOCLIQUE","0045_N1000_K0150_CLIQUE"],"trial_type":"audio-keyboard-response","trial_index":79,"time_elapsed":73061,"internal_node_id":"0.0-63.0-0.0-1.0"},{"rt":575,"response":"arrowright","nodes_order":[180,613,84,767,597,658,786,44,835,403,950,990,510,759,477,794,240,891,439,48,101,525,519,974,660,170,760,969,357,481,748,524,212,297,570,536,25,671,443,177,782,841,253,706,800,734,685,204,945,921,729,886,116,190,176,601,457,334,487,677,584,470,676,739,350,166,731,300,172,750,724,121,424,624,983,701,652,372,713,56,415,162,844,813,95,978,109,573,288,174,982,744,128,908,260,885,173,898,499,73,542,507,616,963,15,749,494,168,912,803,361,444,155,423,115,467,556,864,861,145,962,442,254,328,143,752,773,740,717,993,447,69,296,191,92,839,53,901,309,156,735,391,845,421,385,158,911,824,305,571,135,440,427,704,369,532,367,614,77,210,999,854,341,46,518,310,324,877,201,948,880,680,320,416,768,193,434,42,503,230,952,244,186,259,508,194,981,995,120,868,855,830,936,468,497,397,488,792,249,306,228,862,716,419,63,165,218,359,851,873,599,715,959,533,134,707,520,732,951,953,559,200,586,526,371,612,4,659,947,79,384,58,871,546,322,75,435,50,757,351,670,592,478,581,931,640,225,119,392,336,550,366,589,600,192,414,169,784,930,402,460,272,486,345,637,167,700,299,133,147,55,554,482,68,937,347,265,837,452,771,598,93,655,853,607,720,657,255,418,283,626,353,509,113,389,465,604,152,86,485,243,114,304,74,462,279,878,60,484,221,807,541,543,980,887,118,910,998,32,17,832,295,972,506,377,285,941,730,836,846,274,5,774,368,662,448,52,282,182,900,866,804,674,333,529,498,422,764,818,619,555,250,436,480,326,722,126,281,242,181,548,850,964,727,407,629,138,376,331,234,909,314,678,918,316,80,237,261,776,512,323,2,476,139,196,28,919,404,425,530,380,337,684,842,412,822,112,245,882,483,631,897,393,856,620,381,591,358,876,817,388,149,10,390,826,223,409,6,761,513,682,915,788,396,315,107,593,710,605,920,858,102,103,618,580,29,383,20,718,815,796,979,27,140,852,57,43,736,335,329,627,268,489,728,154,325,148,517,785,490,965,131,656,429,382,966,284,313,916,574,913,123,721,538,30,217,171,989,675,97,344,754,569,33,689,906,635,895,903,406,11,996,943,679,763,51,459,977,645,923,646,7,583,568,686,663,410,527,687,23,251,777,308,342,934,970,522,769,303,110,753,968,547,455,643,907,992,153,319,463,195,622,725,311,9,756,743,703,603,609,501,16,229,928,780,819,714,287,106,231,673,26,639,642,636,692,340,956,492,653,24,159,332,733,779,890,511,997,809,365,205,214,976,82,681,405,758,578,621,241,257,849,496,76,927,661,339,738,420,426,471,823,649,202,666,799,474,579,469,157,493,327,0,379,215,585,373,248,280,453,400,500,942,971,105,831,199,307,746,865,370,456,902,475,975,437,61,49,991,127,130,87,207,879,816,289,430,683,766,772,751,70,431,859,588,278,220,949,417,293,208,62,54,925,164,185,39,273,294,606,867,433,247,669,146,213,238,458,100,267,961,894,290,38,954,411,65,531,318,502,693,321,791,602,224,628,363,189,446,755,638,893,899,650,178,838,37,266,929,66,232,399,705,122,783,346,544,935,479,798,985,262,354,672,805,276,428,1,454,702,142,828,338,863,711,883,577,896,206,22,917,926,770,355,14,647,610,227,848,528,694,88,869,719,401,144,695,161,881,211,81,984,222,151,275,302,378,239,741,795,104,535,256,987,564,413,71,91,840,575,473,874,246,449,398,235,187,924,292,812,505,85,558,34,814,615,441,875,3,712,252,608,317,516,78,625,829,633,594,565,514,408,263,644,790,356,576,59,572,99,464,197,560,472,808,630,566,203,539,89,360,96,432,40,957,36,690,590,641,67,810,352,563,806,587,8,72,141,271,13,98,552,667,298,387,160,632,47,775,348,801,31,821,188,19,709,35,696,617,504,125,450,723,699,825,870,136,708,291,562,301,582,811,343,833,802,960,124,847,860,445,634,549,137,967,940,330,184,286,209,648,394,944,233,781,946,451,973,737,834,611,64,742,557,111,466,747,108,654,697,216,312,789,438,515,623,540,778,12,258,395,668,163,491,545,595,994,958,787,132,938,179,698,83,264,226,933,827,988,726,905,537,551,904,364,270,857,955,843,90,884,349,386,362,872,793,523,888,765,596,553,939,495,129,797,651,198,183,762,889,150,914,45,664,691,561,820,986,688,534,175,745,922,117,18,892,665,236,375,567,94,374,461,41,21,521,219,932,277,269],"correct_response":"arrowleft","correct":false,"block_index":0,"presentation_index":15,"clique_size":150,"graph_size":1000,"graphs_couple":["0043_N1000_K0150_CLIQUE","0005_N1000_K0150_NOCLIQUE"],"trial_type":"canvas-keyboard-response","trial_index":80,"time_elapsed":74550,"internal_node_id":"0.0-64.0-0.0-0.0"},{"rt":null,"stimulus":"audio_feedback/wrong/error01.mp3","response":null,"block_index":0,"presentation_index":15,"clique_size":150,"graph_size":1000,"graphs_couple":["0043_N1000_K0150_CLIQUE","0005_N1000_K0150_NOCLIQUE"],"trial_type":"audio-keyboard-response","trial_index":81,"time_elapsed":75561,"internal_node_id":"0.0-64.0-0.0-1.0"},{"rt":543,"response":"arrowleft","nodes_order":[973,935,379,242,285,214,401,612,541,911,715,528,981,614,439,117,123,887,212,975,827,400,946,812,962,498,879,955,985,244,877,469,881,998,505,831,53,727,739,208,793,943,319,866,19,508,361,269,300,600,158,567,849,223,266,7,840,871,287,787,808,467,333,754,464,688,660,699,639,406,706,926,852,838,618,821,334,368,183,438,780,677,359,465,380,698,374,662,724,629,342,409,169,153,823,412,770,304,731,343,914,263,669,348,785,723,850,215,963,783,851,198,138,162,818,306,651,262,873,872,203,725,902,763,130,97,302,402,177,931,332,847,574,485,125,202,299,156,65,62,649,764,233,796,627,641,366,672,382,740,22,671,939,999,557,58,51,863,609,905,861,328,360,523,670,534,10,279,72,82,948,788,2,594,33,435,240,915,468,311,40,774,947,564,453,766,901,450,9,369,745,990,160,936,522,854,187,457,789,55,497,297,281,965,529,910,989,500,678,875,197,617,144,252,441,64,959,516,353,351,517,164,356,226,182,481,917,238,835,538,329,844,126,442,108,30,615,642,732,595,428,337,880,535,99,743,149,907,776,228,341,474,587,761,958,757,397,235,478,750,136,666,377,775,376,589,458,643,52,27,503,434,777,570,628,404,207,638,280,605,586,261,192,54,416,265,345,893,760,391,932,5,437,259,477,67,637,553,870,923,48,537,432,960,883,79,531,802,96,701,18,610,175,115,398,200,782,456,254,466,20,696,604,248,488,154,924,635,37,646,894,479,928,16,298,483,249,515,913,78,513,640,501,272,95,833,737,502,365,613,195,111,239,413,316,814,59,310,392,322,874,993,415,455,957,899,526,762,846,288,217,648,657,146,579,572,433,257,828,658,74,664,448,132,895,161,461,925,87,542,289,710,806,425,736,384,335,204,286,970,422,222,967,781,550,372,251,663,885,898,856,277,507,63,423,951,665,0,88,867,599,35,358,546,862,758,622,355,524,120,520,949,598,327,147,336,492,608,815,728,363,241,173,834,389,370,554,131,116,556,69,493,620,693,114,274,626,436,25,271,13,509,692,121,726,549,414,569,566,325,681,966,282,166,603,278,256,950,3,137,57,213,611,984,953,430,135,385,211,580,869,697,978,992,418,243,152,476,532,848,687,650,454,720,68,56,653,378,43,954,878,220,548,91,799,683,150,813,746,462,473,73,318,36,601,979,12,390,443,407,290,324,313,596,845,590,408,85,410,843,543,189,817,673,103,717,768,196,977,578,994,571,630,129,668,855,933,393,525,127,314,912,190,803,974,514,49,675,80,234,562,61,470,702,383,995,654,46,891,417,224,178,445,559,350,447,236,487,680,170,659,908,539,237,118,842,275,972,312,561,918,34,930,491,896,270,722,112,267,655,591,326,804,798,703,882,295,86,942,934,756,411,110,155,695,301,60,982,253,686,714,15,734,645,354,41,961,23,576,246,489,521,892,784,805,229,825,581,1,751,184,504,606,496,906,258,644,83,755,577,624,486,371,194,565,986,494,839,937,631,221,293,352,690,176,738,795,824,971,102,163,859,106,712,357,772,791,545,983,679,309,463,421,555,480,820,499,811,809,682,346,769,216,294,929,794,475,28,593,381,988,193,308,636,592,490,394,544,822,709,518,89,159,841,829,98,472,616,733,661,830,452,941,339,17,305,399,199,919,245,340,47,230,674,708,956,42,94,139,71,771,721,315,128,70,652,446,292,218,449,142,889,320,584,347,364,916,778,420,303,268,575,367,927,440,705,711,6,171,969,729,744,451,113,868,886,395,568,260,510,922,459,296,8,134,694,276,186,964,987,685,151,148,14,349,890,191,174,482,944,807,50,427,837,201,444,547,530,857,188,786,991,540,81,742,713,386,940,921,707,684,100,633,903,647,264,597,858,759,826,753,90,185,31,656,632,909,405,884,585,460,900,689,11,157,124,716,344,527,484,396,511,860,323,227,273,181,997,800,209,32,205,607,45,583,836,551,619,167,107,552,179,387,104,801,512,602,168,773,362,225,749,667,797,968,206,945,691,976,331,704,330,119,920,133,140,558,232,897,718,165,519,621,143,779,4,250,865,283,26,429,735,588,255,388,231,321,141,832,101,317,44,403,888,105,29,573,752,623,748,39,876,582,810,77,375,495,853,75,180,996,219,747,536,24,424,533,790,338,419,471,431,952,38,66,506,373,122,560,109,634,676,145,864,625,719,93,730,938,284,92,76,210,563,172,980,307,904,21,291,247,792,819,741,816,700,765,426,767,84],"correct_response":"arrowleft","correct":true,"block_index":0,"presentation_index":16,"clique_size":133,"graph_size":1000,"graphs_couple":["0008_N1000_K0133_CLIQUE","0092_N1000_K0133_NOCLIQUE"],"trial_type":"canvas-keyboard-response","trial_index":82,"time_elapsed":77008,"internal_node_id":"0.0-65.0-0.0-0.0"},{"rt":null,"stimulus":"audio_feedback/right/coin01.mp3","response":null,"block_index":0,"presentation_index":16,"clique_size":133,"graph_size":1000,"graphs_couple":["0008_N1000_K0133_CLIQUE","0092_N1000_K0133_NOCLIQUE"],"trial_type":"audio-keyboard-response","trial_index":83,"time_elapsed":78001,"internal_node_id":"0.0-65.0-0.0-1.0"},{"rt":265,"response":"arrowleft","nodes_order":[80,187,450,748,915,286,291,589,637,742,730,816,972,45,761,907,567,401,525,926,704,384,142,646,336,445,666,639,722,220,690,492,686,209,794,261,222,723,721,701,317,301,195,4,543,293,397,462,877,281,280,960,454,903,172,196,527,157,755,715,88,887,571,285,563,648,839,120,549,160,204,854,402,695,516,169,607,65,975,191,951,603,983,184,206,938,89,474,127,430,591,779,841,992,515,996,661,212,365,705,933,785,862,145,683,10,299,740,528,262,679,514,364,460,29,419,626,570,653,358,814,315,378,109,884,640,247,132,826,374,622,328,697,28,392,114,49,613,863,873,185,240,952,578,850,151,370,569,51,574,990,440,94,27,1,774,943,382,202,42,699,396,61,780,955,144,967,211,231,734,729,860,153,710,447,274,583,741,611,418,758,332,630,464,423,802,37,455,449,609,534,216,733,476,545,478,910,849,635,848,719,268,414,152,294,890,799,988,284,20,542,208,936,443,544,650,391,323,517,927,135,769,784,338,472,576,963,713,934,119,31,484,533,787,539,993,606,165,85,325,348,691,531,619,308,692,775,337,243,256,499,597,883,838,190,658,387,508,506,790,642,375,502,469,48,725,584,77,272,62,244,486,11,491,726,660,36,104,624,147,477,712,7,349,749,823,836,559,461,602,529,21,510,498,612,829,56,808,904,252,827,777,565,524,928,772,54,859,263,9,641,805,311,526,67,260,568,316,546,483,197,107,746,861,999,183,509,14,667,410,994,985,53,621,112,108,234,557,421,858,25,174,966,540,138,485,15,541,629,720,831,865,458,718,439,307,895,798,97,193,659,830,627,946,79,752,413,403,844,150,82,340,264,737,279,868,380,608,601,599,879,579,554,60,657,818,631,663,796,694,902,932,950,111,168,954,314,512,90,866,693,343,980,162,146,623,956,982,200,763,292,433,136,357,941,909,129,824,52,595,958,881,339,6,456,614,86,253,832,233,468,63,57,290,753,329,965,743,538,188,271,945,489,685,362,588,872,92,12,717,131,918,411,113,647,161,346,179,194,235,441,371,239,386,886,979,893,558,801,738,867,835,625,989,143,241,170,617,398,728,355,407,276,68,891,495,575,598,226,84,442,259,672,470,745,815,820,493,361,490,429,899,459,59,981,497,800,590,937,426,698,585,797,416,171,23,321,313,102,916,465,957,880,556,288,757,43,228,46,115,708,255,882,885,475,356,133,309,95,896,959,246,874,744,453,828,167,40,173,101,702,207,159,949,225,446,521,821,123,689,977,505,463,221,750,638,58,438,764,917,116,810,124,437,889,636,586,422,34,448,164,781,122,864,180,117,224,350,223,634,273,871,238,47,266,670,736,655,318,759,547,633,913,412,177,935,480,390,605,600,230,751,237,275,837,716,66,434,908,991,71,593,894,520,251,974,782,399,665,795,847,550,739,892,359,788,919,762,306,813,74,817,776,278,213,205,645,298,786,901,381,969,700,675,148,424,199,834,50,572,643,671,125,711,203,330,3,942,128,393,768,473,363,898,0,756,944,452,767,295,668,155,783,232,876,304,366,30,997,676,961,553,198,632,93,428,513,518,269,649,530,914,924,840,289,427,552,582,229,377,76,482,154,44,347,351,372,842,987,735,532,400,81,684,72,126,432,806,219,41,856,395,2,920,925,760,851,727,793,628,703,175,766,130,305,341,250,561,687,73,302,747,878,156,178,16,368,682,296,875,789,471,257,320,13,825,833,236,87,906,900,425,843,139,334,70,270,855,651,905,17,106,870,656,201,354,807,652,555,39,995,791,103,466,367,560,504,953,888,706,326,163,536,610,181,98,714,479,770,141,214,121,644,408,869,376,897,537,853,389,91,327,312,149,709,811,654,976,78,35,96,481,973,822,662,754,176,218,385,494,64,26,677,551,947,32,182,511,548,986,852,912,580,319,192,535,265,282,352,300,303,254,487,523,931,604,970,242,344,522,922,217,331,696,592,501,215,929,75,140,707,33,394,857,771,322,379,335,678,519,940,8,503,69,930,420,134,404,283,724,24,803,804,166,564,310,964,496,405,383,615,778,267,388,673,342,249,681,431,369,55,792,360,137,664,674,962,444,83,978,417,118,451,105,406,809,688,186,845,18,594,620,345,373,467,287,409,669,984,435,488,245,248,819,258,968,19,324,210,158,923,998,846,948,110,911,227,596,562,100,939,616,765,22,277,38,353,507,415,333,500,731,921,297,618,566,587,812,680,99,971,189,457,732,577,573,581,773,5,436],"correct_response":"arrowright","correct":false,"block_index":0,"presentation_index":17,"clique_size":133,"graph_size":1000,"graphs_couple":["0033_N1000_K0133_NOCLIQUE","0006_N1000_K0133_CLIQUE"],"trial_type":"canvas-keyboard-response","trial_index":84,"time_elapsed":79155,"internal_node_id":"0.0-66.0-0.0-0.0"},{"rt":null,"stimulus":"audio_feedback/wrong/error01.mp3","response":null,"block_index":0,"presentation_index":17,"clique_size":133,"graph_size":1000,"graphs_couple":["0033_N1000_K0133_NOCLIQUE","0006_N1000_K0133_CLIQUE"],"trial_type":"audio-keyboard-response","trial_index":85,"time_elapsed":80142,"internal_node_id":"0.0-66.0-0.0-1.0"},{"rt":3,"response":"arrowright","nodes_order":[691,715,751,846,848,256,133,933,994,551,193,463,67,579,812,160,408,558,788,606,843,901,643,246,882,433,40,437,920,310,439,561,839,595,111,862,711,970,995,665,851,763,658,520,494,707,268,748,149,660,205,566,617,28,163,613,831,426,791,109,275,591,251,527,712,915,364,174,667,273,107,780,912,280,600,703,683,872,655,593,353,829,91,238,428,716,517,98,922,720,383,338,686,796,858,347,935,343,902,422,326,732,928,458,997,547,108,416,69,199,431,823,17,963,808,756,43,62,616,192,308,675,867,840,634,474,857,444,787,729,361,79,30,924,731,759,885,815,104,910,927,3,549,457,657,619,262,969,368,602,506,519,289,148,90,923,484,404,767,113,682,151,869,250,419,337,555,598,871,150,24,349,249,86