[{"success":true,"timeout":false,"failed_images":[],"failed_audio":[],"failed_video":[],"trial_type":"preload","trial_index":0,"time_elapsed":43,"internal_node_id":"0.0-0.0"},{"view_history":[{"page_index":0,"viewing_time":1757},{"page_index":1,"viewing_time":133}],"rt":1890,"trial_type":"instructions","trial_index":1,"time_elapsed":1936,"internal_node_id":"0.0-1.0"},{"success":true,"timeout":false,"failed_images":[],"failed_audio":[],"failed_video":[],"trial_type":"preload","trial_index":2,"time_elapsed":1988,"internal_node_id":"0.0-2.0"},{"view_history":[{"page_index":0,"viewing_time":187},{"page_index":1,"viewing_time":114},{"page_index":2,"viewing_time":178},{"page_index":3,"viewing_time":185},{"page_index":4,"viewing_time":157},{"page_index":5,"viewing_time":156},{"page_index":6,"viewing_time":141},{"page_index":7,"viewing_time":141},{"page_index":8,"viewing_time":134},{"page_index":9,"viewing_time":441},{"page_index":10,"viewing_time":109},{"page_index":11,"viewing_time":135},{"page_index":12,"viewing_time":133},{"page_index":13,"viewing_time":126},{"page_index":14,"viewing_time":120},{"page_index":15,"viewing_time":141},{"page_index":16,"viewing_time":130},{"page_index":17,"viewing_time":122},{"page_index":18,"viewing_time":131},{"page_index":19,"viewing_time":109},{"page_index":20,"viewing_time":140},{"page_index":21,"viewing_time":129},{"page_index":22,"viewing_time":133},{"page_index":23,"viewing_time":134},{"page_index":24,"viewing_time":151},{"page_index":25,"viewing_time":126},{"page_index":26,"viewing_time":147},{"page_index":27,"viewing_time":132},{"page_index":28,"viewing_time":76},{"page_index":29,"viewing_time":115},{"page_index":30,"viewing_time":466},{"page_index":31,"viewing_time":146},{"page_index":32,"viewing_time":140},{"page_index":33,"viewing_time":136},{"page_index":34,"viewing_time":133},{"page_index":35,"viewing_time":152},{"page_index":36,"viewing_time":153},{"page_index":37,"viewing_time":148},{"page_index":38,"viewing_time":133},{"page_index":39,"viewing_time":153},{"page_index":40,"viewing_time":162},{"page_index":41,"viewing_time":164},{"page_index":42,"viewing_time":150},{"page_index":43,"viewing_time":156},{"page_index":44,"viewing_time":159},{"page_index":45,"viewing_time":151},{"page_index":46,"viewing_time":150},{"page_index":47,"viewing_time":151},{"page_index":48,"viewing_time":157},{"page_index":49,"viewing_time":156},{"page_index":50,"viewing_time":159},{"page_index":51,"viewing_time":166}],"rt":8010,"trial_type":"instructions","trial_index":3,"time_elapsed":9999,"internal_node_id":"0.0-3.0"},{"view_history":[{"page_index":0,"viewing_time":661}],"rt":661,"trial_type":"instructions","trial_index":4,"time_elapsed":10660,"internal_node_id":"0.0-4.0"},{"success":true,"timeout":false,"failed_images":[],"failed_audio":[],"failed_video":[],"trial_type":"preload","trial_index":5,"time_elapsed":10705,"internal_node_id":"0.0-5.0"},{"rt":553,"stimulus":"tutorial/task_familiarization_images/part 1/01_N160_K90_cliqueRight_question1.PNG","response":" ","trial_type":"image-keyboard-response","trial_index":6,"time_elapsed":11260,"internal_node_id":"0.0-6.0"},{"rt":158,"stimulus":"tutorial/task_familiarization_images/part 1/02_N160_K90_cliqueRight_question2.PNG","response":" ","trial_type":"image-keyboard-response","trial_index":7,"time_elapsed":11419,"internal_node_id":"0.0-7.0"},{"rt":353,"stimulus":"tutorial/task_familiarization_images/part 1/03_N160_K90_cliqueRight_question3.PNG","response":"arrowright","trial_type":"image-keyboard-response","trial_index":8,"time_elapsed":11774,"internal_node_id":"0.0-8.0"},{"rt":182,"stimulus":"tutorial/task_familiarization_images/part 1/04_N160_K90_cliqueRight_solution.PNG","response":" ","trial_type":"image-keyboard-response","trial_index":9,"time_elapsed":11957,"internal_node_id":"0.0-9.0"},{"rt":213,"stimulus":"tutorial/task_familiarization_images/part 1/05_N160_K65_cliqueRight_question1.PNG","response":" ","trial_type":"image-keyboard-response","trial_index":10,"time_elapsed":12171,"internal_node_id":"0.0-10.0"},{"rt":169,"stimulus":"tutorial/task_familiarization_images/part 1/06_N160_K65_cliqueRight_question2.PNG","response":" ","trial_type":"image-keyboard-response","trial_index":11,"time_elapsed":12341,"internal_node_id":"0.0-11.0"},{"rt":179,"stimulus":"tutorial/task_familiarization_images/part 1/07_N160_K65_cliqueRight_question3.PNG","response":"arrowleft","trial_type":"image-keyboard-response","trial_index":12,"time_elapsed":12521,"internal_node_id":"0.0-12.0"},{"rt":142,"stimulus":"tutorial/task_familiarization_images/part 1/08_N160_K65_cliqueRight_solution.PNG","response":" ","trial_type":"image-keyboard-response","trial_index":13,"time_elapsed":12664,"internal_node_id":"0.0-13.0"},{"rt":174,"stimulus":"tutorial/task_familiarization_images/part 1/09_N160_K50_cliqueLeft_question1.PNG","response":" ","trial_type":"image-keyboard-response","trial_index":14,"time_elapsed":12839,"internal_node_id":"0.0-14.0"},{"rt":172,"stimulus":"tutorial/task_familiarization_images/part 1/10_N160_K50_cliqueLeft_question2.PNG","response":" ","trial_type":"image-keyboard-response","trial_index":15,"time_elapsed":13012,"internal_node_id":"0.0-15.0"},{"rt":341,"stimulus":"tutorial/task_familiarization_images/part 1/11_N160_K50_cliqueLeft_question3.PNG","response":"arrowleft","trial_type":"image-keyboard-response","trial_index":16,"time_elapsed":13354,"internal_node_id":"0.0-16.0"},{"rt":131,"stimulus":"tutorial/task_familiarization_images/part 1/12_N160_K50_cliqueLeft_solution.PNG","response":" ","trial_type":"image-keyboard-response","trial_index":17,"time_elapsed":13487,"internal_node_id":"0.0-17.0"},{"rt":177,"stimulus":"tutorial/task_familiarization_images/part 1/13_N160_K80_cliqueLeft_question1.PNG","response":" ","trial_type":"image-keyboard-response","trial_index":18,"time_elapsed":13665,"internal_node_id":"0.0-18.0"},{"rt":165,"stimulus":"tutorial/task_familiarization_images/part 1/14_N160_K80_cliqueLeft_question2.PNG","response":" ","trial_type":"image-keyboard-response","trial_index":19,"time_elapsed":13832,"internal_node_id":"0.0-19.0"},{"rt":304,"stimulus":"tutorial/task_familiarization_images/part 1/15_N160_K80_cliqueLeft_question3.PNG","response":"arrowright","trial_type":"image-keyboard-response","trial_index":20,"time_elapsed":14138,"internal_node_id":"0.0-20.0"},{"rt":463,"stimulus":"tutorial/task_familiarization_images/part 1/16_N160_K80_cliqueLeft_solution.PNG","response":" ","trial_type":"image-keyboard-response","trial_index":21,"time_elapsed":14602,"internal_node_id":"0.0-21.0"},{"rt":180,"stimulus":"tutorial/task_familiarization_images/part 1/17_N160_K40_cliqueRight_question1.PNG","response":" ","trial_type":"image-keyboard-response","trial_index":22,"time_elapsed":14783,"internal_node_id":"0.0-22.0"},{"rt":166,"stimulus":"tutorial/task_familiarization_images/part 1/18_N160_K40_cliqueRight_question2.PNG","response":" ","trial_type":"image-keyboard-response","trial_index":23,"time_elapsed":14950,"internal_node_id":"0.0-23.0"},{"rt":154,"stimulus":"tutorial/task_familiarization_images/part 1/19_N160_K40_cliqueRight_question3.PNG","response":"arrowleft","trial_type":"image-keyboard-response","trial_index":24,"time_elapsed":15105,"internal_node_id":"0.0-24.0"},{"rt":119,"stimulus":"tutorial/task_familiarization_images/part 1/20_N160_K40_cliqueRight_solution.PNG","response":" ","trial_type":"image-keyboard-response","trial_index":25,"time_elapsed":15226,"internal_node_id":"0.0-25.0"},{"rt":189,"stimulus":"tutorial/task_familiarization_images/part 1/21_N160_K70_cliqueLeft_question1.PNG","response":" ","trial_type":"image-keyboard-response","trial_index":26,"time_elapsed":15416,"internal_node_id":"0.0-26.0"},{"rt":189,"stimulus":"tutorial/task_familiarization_images/part 1/22_N160_K70_cliqueLeft_question2.PNG","response":" ","trial_type":"image-keyboard-response","trial_index":27,"time_elapsed":15606,"internal_node_id":"0.0-27.0"},{"rt":155,"stimulus":"tutorial/task_familiarization_images/part 1/23_N160_K70_cliqueLeft_question3.PNG","response":"arrowleft","trial_type":"image-keyboard-response","trial_index":28,"time_elapsed":15762,"internal_node_id":"0.0-28.0"},{"rt":129,"stimulus":"tutorial/task_familiarization_images/part 1/24_N160_K70_cliqueLeft_solution.PNG","response":" ","trial_type":"image-keyboard-response","trial_index":29,"time_elapsed":15893,"internal_node_id":"0.0-29.0"},{"success":true,"timeout":false,"failed_images":[],"failed_audio":[],"failed_video":[],"trial_type":"preload","trial_index":30,"time_elapsed":15937,"internal_node_id":"0.0-30.0"},{"rt":129,"stimulus":"tutorial/task_familiarization_images/part 2/01_160_80_cliqueLeft_withFeedback_1.PNG","response":" ","trial_type":"image-keyboard-response","trial_index":31,"time_elapsed":16067,"internal_node_id":"0.0-31.0"},{"rt":175,"stimulus":"tutorial/task_familiarization_images/part 2/02_160_80_cliqueLeft_withFeedback_1.PNG","response":" ","trial_type":"image-keyboard-response","trial_index":32,"time_elapsed":16242,"internal_node_id":"0.0-32.0"},{"rt":269,"stimulus":"tutorial/task_familiarization_images/part 2/03_160_80_cliqueLeft_withFeedback_3.PNG","response":"arrowright","trial_type":"image-keyboard-response","trial_index":33,"time_elapsed":16512,"internal_node_id":"0.0-33.0"},{"rt":156,"stimulus":"tutorial/task_familiarization_images/part 2/04_160_80_cliqueLeft_withFeedback_wrong.PNG","response":" ","trial_type":"image-keyboard-response","trial_index":34,"time_elapsed":16670,"internal_node_id":"0.0-34.0"},{"rt":182,"stimulus":"tutorial/task_familiarization_images/part 2/05_160_55_cliqueRight_withFeedback_1.PNG","response":" ","trial_type":"image-keyboard-response","trial_index":35,"time_elapsed":16853,"internal_node_id":"0.0-35.0"},{"rt":181,"stimulus":"tutorial/task_familiarization_images/part 2/06_160_55_cliqueRight_withFeedback_2.PNG","response":" ","trial_type":"image-keyboard-response","trial_index":36,"time_elapsed":17034,"internal_node_id":"0.0-36.0"},{"rt":166,"stimulus":"tutorial/task_familiarization_images/part 2/07_160_55_cliqueRight_withFeedback_3.PNG","response":"arrowright","trial_type":"image-keyboard-response","trial_index":37,"time_elapsed":17201,"internal_node_id":"0.0-37.0"},{"rt":129,"stimulus":"tutorial/task_familiarization_images/part 2/08_160_55_cliqueRight_withFeedback_correct.PNG","response":" ","trial_type":"image-keyboard-response","trial_index":38,"time_elapsed":17331,"internal_node_id":"0.0-38.0"},{"rt":180,"stimulus":"tutorial/task_familiarization_images/part 2/09_160_70_cliqueLeft_withFeedback_1.PNG","response":" ","trial_type":"image-keyboard-response","trial_index":39,"time_elapsed":17512,"internal_node_id":"0.0-39.0"},{"rt":164,"stimulus":"tutorial/task_familiarization_images/part 2/10_160_70_cliqueLeft_withFeedback_2.PNG","response":" ","trial_type":"image-keyboard-response","trial_index":40,"time_elapsed":17677,"internal_node_id":"0.0-40.0"},{"rt":158,"stimulus":"tutorial/task_familiarization_images/part 2/11_160_70_cliqueLeft_withFeedback_3.PNG","response":"arrowleft","trial_type":"image-keyboard-response","trial_index":41,"time_elapsed":17836,"internal_node_id":"0.0-41.0"},{"rt":107,"stimulus":"tutorial/task_familiarization_images/part 2/12_160_70_cliqueLeft_withFeedback_correct.PNG","response":" ","trial_type":"image-keyboard-response","trial_index":42,"time_elapsed":17944,"internal_node_id":"0.0-42.0"},{"success":true,"timeout":false,"failed_images":[],"failed_audio":[],"failed_video":[],"trial_type":"preload","trial_index":43,"time_elapsed":17968,"internal_node_id":"0.0-43.0"},{"view_history":[{"page_index":0,"viewing_time":725}],"rt":726,"trial_type":"instructions","trial_index":44,"time_elapsed":18694,"internal_node_id":"0.0-44.0"},{"rt":6231,"response":{"gender":"male","age":"34"},"trial_type":"survey-html-form","trial_index":45,"time_elapsed":24927,"internal_node_id":"0.0-45.0"},{"view_history":[{"page_index":0,"viewing_time":886}],"rt":886,"trial_type":"instructions","trial_index":46,"time_elapsed":25814,"internal_node_id":"0.0-46.0"},{"success":true,"trial_type":"fullscreen","trial_index":47,"time_elapsed":28923,"internal_node_id":"0.0-48.0"},{"rt":388,"response":"arrowright","nodes_order":[805,959,377,912,975,449,484,809,168,402,824,1,942,529,949,66,960,350,425,769,623,978,783,712,969,682,694,693,579,993,467,771,118,492,391,318,362,145,158,7,675,364,85,883,642,191,15,86,750,813,468,165,448,638,681,243,989,954,133,289,189,308,597,452,438,344,721,357,161,531,908,763,257,643,774,121,557,302,483,325,361,331,840,876,502,446,282,527,640,939,399,610,60,123,433,899,700,674,958,615,704,423,842,327,743,980,323,684,470,375,974,699,499,177,732,890,794,435,444,417,404,464,10,637,363,549,32,355,19,132,961,430,256,567,440,239,503,885,14,53,655,398,424,208,542,316,360,49,432,981,943,297,254,234,59,999,188,143,789,690,182,832,412,460,963,269,724,78,716,995,635,31,281,485,313,330,199,948,510,796,213,864,119,532,459,696,892,193,553,348,731,266,411,27,740,211,855,56,116,816,157,603,227,292,562,44,147,71,669,601,104,89,155,793,40,306,872,163,261,93,573,184,755,83,63,701,578,342,551,575,747,153,505,212,5,863,545,284,670,358,197,845,850,962,926,81,865,58,115,992,513,625,539,968,491,67,319,338,592,820,754,304,657,171,36,547,873,82,403,317,929,927,595,458,698,830,938,967,540,351,708,390,443,996,934,219,614,683,12,723,680,99,788,910,522,181,274,617,90,831,473,880,608,507,25,728,401,810,604,677,447,658,64,815,410,947,757,482,329,134,818,272,991,339,151,707,825,436,613,738,393,442,697,38,792,839,689,720,149,653,324,917,780,378,800,664,228,453,530,662,652,687,795,944,546,246,812,764,490,478,931,565,203,598,858,649,420,494,476,854,215,860,91,397,497,621,703,646,207,28,175,326,973,386,612,710,100,644,512,279,101,3,616,224,641,734,856,509,508,125,619,320,110,427,898,994,381,748,803,150,645,500,521,421,249,679,185,96,373,997,88,715,103,275,957,933,676,111,753,756,201,41,291,141,23,556,965,314,295,11,267,20,725,206,659,223,37,896,590,671,706,823,434,55,286,736,552,821,618,245,50,114,265,242,749,374,672,636,170,180,84,852,426,666,826,656,548,915,172,630,765,770,907,466,972,413,953,906,408,709,692,385,451,913,966,65,950,251,0,837,541,238,822,940,298,194,936,879,633,925,294,183,454,105,493,280,117,146,388,218,902,751,537,516,648,862,606,766,244,668,559,343,970,574,711,138,868,848,543,273,713,369,511,216,200,489,365,345,61,225,236,231,248,777,986,930,179,807,536,976,142,98,74,760,881,888,922,520,387,70,705,415,312,829,727,583,741,742,139,144,471,836,396,120,631,519,607,46,384,761,673,222,905,72,702,354,54,405,847,897,588,407,841,744,874,69,875,76,288,148,982,526,462,528,29,602,333,481,887,935,496,955,554,285,790,463,737,307,870,230,691,663,808,276,441,695,366,94,591,843,356,160,305,299,220,964,844,167,729,419,128,596,162,347,226,685,106,221,488,884,628,92,523,352,287,196,798,730,911,584,456,214,799,372,758,26,479,564,113,198,431,400,538,806,660,439,914,718,773,164,585,778,594,109,340,277,204,941,233,4,719,814,392,956,647,13,159,586,838,429,480,300,48,263,639,9,566,661,714,16,752,303,389,495,984,920,624,97,620,187,290,47,334,923,611,877,336,745,921,39,835,524,258,247,651,477,866,518,270,77,232,455,192,322,18,828,368,30,558,951,309,176,791,576,853,544,534,560,937,900,250,772,461,909,152,886,686,255,278,861,804,241,126,237,406,983,569,517,533,846,262,95,45,235,264,367,359,817,787,977,919,581,370,851,169,474,555,605,371,759,571,924,979,525,903,112,895,946,379,22,626,253,341,349,971,802,726,568,801,8,570,131,622,383,79,775,17,998,437,768,418,990,904,776,833,457,932,283,422,24,819,68,154,296,781,593,173,589,195,577,136,310,395,217,137,717,43,62,797,634,33,857,889,506,515,871,859,21,268,301,42,599,504,210,779,650,394,600,928,550,52,122,34,102,80,834,6,346,786,353,878,35,582,739,869,827,124,916,260,722,271,563,205,785,130,952,665,987,784,166,108,882,632,627,259,572,498,849,609,293,678,472,380,445,486,190,252,688,894,561,332,535,891,229,335,945,321,382,629,654,811,867,129,414,469,140,135,514,985,733,762,580,174,186,73,409,57,501,107,209,376,178,2,918,450,465,337,311,240,735,315,75,782,901,667,475,767,428,87,416,51,988,487,328,893,746,587,202,127,156],"correct_response":"arrowright","correct":true,"block_index":0,"presentation_index":0,"clique_size":300,"graph_size":1000,"graphs_couple":["0058_N1000_K0300_NOCLIQUE","0096_N1000_K0300_CLIQUE"],"trial_type":"canvas-keyboard-response","trial_index":48,"time_elapsed":30302,"internal_node_id":"0.0-49.0-0.0-0.0"},{"rt":null,"stimulus":"audio_feedback/right/coin01.mp3","response":null,"block_index":0,"presentation_index":0,"clique_size":300,"graph_size":1000,"graphs_couple":["0058_N1000_K0300_NOCLIQUE","0096_N1000_K0300_CLIQUE"],"trial_type":"audio-keyboard-response","trial_index":49,"time_elapsed":31644,"internal_node_id":"0.0-49.0-0.0-1.0"},{"rt":498,"response":"arrowright","nodes_order":[285,202,8,258,409,851,840,23,588,605,961,719,85,388,359,652,426,868,808,496,742,109,994,14,604,512,973,404,50,957,45,762,614,284,959,114,493,690,944,684,270,509,557,898,667,594,788,749,706,953,645,333,637,143,795,151,671,414,400,520,183,611,701,70,185,982,334,72,908,37,567,901,491,598,373,829,361,993,439,681,711,554,219,807,69,150,668,892,626,891,717,746,511,10,992,910,300,747,138,569,727,570,712,351,823,841,544,660,579,792,125,596,640,931,204,675,497,912,465,474,107,357,842,968,549,574,390,382,171,113,577,126,861,562,539,110,730,147,170,167,248,647,564,335,955,431,713,122,21,518,283,872,607,289,278,57,830,18,436,186,716,803,425,896,939,693,349,568,844,725,837,240,479,275,178,800,705,960,629,440,758,702,68,49,353,633,43,360,744,593,369,81,325,984,600,20,201,590,102,836,233,787,93,659,108,375,919,586,211,276,827,515,329,502,964,281,833,444,241,989,179,434,306,895,296,429,272,894,9,654,336,462,67,144,826,902,885,172,47,500,776,364,662,121,250,483,998,227,105,297,279,309,358,135,622,942,215,419,342,958,341,643,290,707,119,128,536,129,526,565,816,884,263,857,86,597,974,854,314,780,814,646,287,417,95,245,523,947,521,805,455,92,804,387,305,421,399,810,900,784,691,723,674,952,653,694,415,925,628,879,941,302,174,88,261,867,453,62,146,913,689,242,25,73,257,696,735,100,0,177,17,751,4,90,948,613,864,251,164,615,630,141,886,888,971,58,714,899,418,55,802,127,687,374,383,222,142,995,133,123,445,162,790,545,378,393,575,513,904,39,732,737,699,529,815,921,30,312,346,778,303,610,320,99,91,116,951,298,769,48,781,975,132,313,28,330,379,488,741,181,835,532,406,389,772,580,322,621,538,658,61,632,656,106,848,252,930,155,988,54,683,301,44,507,343,463,466,117,87,458,460,66,677,435,332,469,411,855,410,464,932,856,363,756,853,175,259,999,986,917,24,35,558,767,889,777,377,327,449,481,416,153,852,136,672,299,209,583,260,774,492,818,770,745,789,480,370,243,834,543,237,887,437,154,365,920,922,280,990,29,761,695,337,477,791,362,323,969,599,625,603,606,700,555,189,871,134,331,384,391,169,262,321,915,216,665,738,938,42,470,394,471,96,203,184,636,811,638,831,225,634,733,246,734,371,943,504,190,559,271,850,176,340,860,945,269,307,525,422,768,27,987,828,277,880,173,576,591,40,200,494,214,589,487,866,265,657,468,927,15,461,528,797,682,7,798,326,475,403,368,311,587,451,601,685,822,489,266,424,698,52,381,80,911,551,193,292,140,212,508,550,478,495,979,137,430,825,843,498,433,832,916,77,627,499,750,101,256,166,703,595,573,157,624,946,168,446,740,338,847,556,882,533,801,402,813,428,859,427,447,676,631,6,208,51,26,893,131,486,799,180,467,386,13,452,454,817,293,862,482,548,876,60,274,268,207,395,950,692,720,602,64,678,592,71,356,401,1,165,514,372,786,192,315,221,724,397,679,392,578,78,348,547,76,765,11,198,308,531,163,708,16,552,22,661,38,609,304,878,79,923,328,688,524,846,213,490,75,249,235,963,870,858,759,527,457,793,476,874,794,839,197,385,118,739,956,83,396,649,234,254,89,217,718,503,620,84,405,845,59,2,36,366,709,253,380,223,972,291,754,571,936,344,443,926,873,148,775,413,617,619,5,553,996,459,731,41,722,806,196,456,616,34,584,53,160,983,33,641,929,608,205,934,3,139,903,540,432,244,56,642,230,560,612,484,273,158,97,933,152,820,199,229,918,535,161,954,782,976,94,991,112,473,247,450,226,766,623,149,809,317,670,318,236,949,501,666,239,924,407,206,779,821,316,644,130,506,875,907,12,441,865,897,534,145,978,339,967,345,869,31,752,46,581,156,448,849,355,255,760,697,294,286,970,639,63,264,753,159,505,796,743,288,232,32,220,191,231,997,423,352,928,103,755,354,188,218,763,909,715,438,673,420,319,824,651,194,883,618,648,965,566,519,663,124,517,748,771,367,729,710,324,757,187,104,819,728,111,905,585,224,863,561,210,704,376,98,650,120,940,935,937,182,195,522,783,635,267,408,115,966,472,981,582,680,977,906,542,537,669,812,914,350,74,985,980,877,726,65,485,310,686,442,510,82,295,881,19,530,655,773,412,228,838,563,282,785,238,736,546,664,764,516,962,398,541,347,890,572,721],"correct_response":"arrowright","correct":true,"block_index":0,"presentation_index":1,"clique_size":300,"graph_size":1000,"graphs_couple":["0026_N1000_K0300_NOCLIQUE","0007_N1000_K0300_CLIQUE"],"trial_type":"canvas-keyboard-response","trial_index":50,"time_elapsed":32929,"internal_node_id":"0.0-50.0-0.0-0.0"},{"rt":null,"stimulus":"audio_feedback/right/coin01.mp3","response":null,"block_index":0,"presentation_index":1,"clique_size":300,"graph_size":1000,"graphs_couple":["0026_N1000_K0300_NOCLIQUE","0007_N1000_K0300_CLIQUE"],"trial_type":"audio-keyboard-response","trial_index":51,"time_elapsed":33924,"internal_node_id":"0.0-50.0-0.0-1.0"},{"rt":200,"response":"arrowright","nodes_order":[241,470,192,443,432,585,742,242,475,370,314,94,656,925,829,406,572,422,713,895,247,131,844,69,49,932,882,89,855,196,142,91,716,842,522,74,700,277,753,463,714,287,195,492,155,256,777,497,666,650,244,524,328,300,413,760,175,134,539,548,726,421,940,239,698,740,825,984,821,544,102,916,458,145,129,476,970,273,149,126,553,66,712,118,908,850,563,448,872,138,550,773,823,307,651,18,901,110,849,769,949,224,798,797,115,288,378,446,440,211,332,46,140,672,795,837,867,953,565,266,121,680,722,963,705,567,836,907,507,498,783,833,761,238,298,437,139,465,887,669,425,945,848,778,467,675,622,886,200,82,404,643,906,822,870,854,880,359,65,488,144,197,996,407,415,696,201,269,240,325,743,382,899,441,623,24,812,566,461,9,435,312,243,869,397,998,879,483,346,919,279,260,988,206,213,758,853,609,29,719,342,660,84,264,576,966,105,817,456,767,721,358,156,619,365,439,815,257,889,250,604,431,390,364,401,466,25,971,146,255,552,191,787,663,868,606,896,170,930,686,237,808,695,921,589,827,658,151,348,97,534,517,154,555,6,917,218,479,934,733,228,569,405,845,967,303,88,326,624,158,938,434,977,564,774,409,771,526,356,644,297,929,19,31,683,571,345,337,863,181,412,232,304,174,35,72,454,383,577,962,361,438,399,80,527,990,177,387,107,377,491,991,0,613,113,381,951,44,285,280,599,393,341,580,388,587,922,90,14,265,676,371,600,741,294,221,583,551,968,715,957,98,343,866,251,647,114,281,319,37,729,751,423,347,961,819,472,909,942,418,982,318,116,375,891,610,286,618,333,804,898,283,430,860,559,752,856,231,782,858,603,162,234,315,373,278,352,954,913,236,187,135,392,4,947,892,537,533,664,327,679,246,549,800,608,70,943,939,755,128,112,101,586,677,981,249,838,225,56,516,493,724,652,862,133,503,598,210,76,834,878,728,926,875,50,547,737,349,956,703,39,668,141,86,143,920,106,649,621,71,575,394,53,937,706,104,296,876,402,485,182,545,810,885,941,711,731,292,843,792,17,147,216,830,395,445,62,936,176,427,803,130,897,791,976,799,824,667,718,416,543,763,490,95,627,48,282,320,36,873,157,914,975,480,670,331,226,568,308,317,796,444,268,499,556,79,338,496,794,993,148,699,738,857,813,100,828,835,626,592,254,353,689,820,505,541,902,648,203,252,707,462,330,60,339,730,910,150,784,665,671,946,198,915,447,616,369,7,208,515,986,219,40,159,344,584,826,227,985,316,309,601,293,847,974,334,450,546,179,34,386,55,478,271,620,785,506,801,746,750,372,639,136,770,202,75,805,923,523,169,253,969,980,43,453,310,367,595,594,340,653,258,351,263,26,220,183,495,5,904,284,486,633,20,245,217,591,691,846,989,955,736,709,366,840,417,460,172,590,63,212,469,123,903,173,530,992,305,261,411,642,851,641,73,302,321,538,85,607,403,92,125,964,535,295,408,780,355,414,464,978,230,781,739,931,10,701,108,673,614,807,299,188,468,96,727,625,376,745,457,111,631,122,831,167,764,424,944,928,233,987,137,918,223,684,905,67,654,629,68,628,311,109,734,199,983,581,54,272,360,171,814,997,93,574,637,638,881,153,3,487,532,16,78,64,748,694,688,779,52,632,562,513,374,504,678,474,21,185,933,994,429,999,802,452,482,428,12,924,168,207,262,83,362,790,732,615,119,710,132,15,573,160,557,30,385,13,762,839,398,32,301,124,81,874,235,323,222,508,832,290,47,28,593,674,605,768,948,864,776,640,8,690,336,890,451,911,194,471,248,765,1,270,455,178,368,809,205,165,477,597,514,473,657,749,645,23,77,494,912,884,259,979,484,289,528,757,442,561,692,164,871,646,582,354,209,57,58,436,276,87,900,972,389,756,578,859,189,419,959,789,33,540,449,775,861,806,501,720,558,51,163,617,384,529,180,693,759,521,766,11,542,127,793,459,611,965,120,184,379,267,536,697,531,27,865,512,396,554,42,306,570,275,329,204,636,655,841,103,935,166,500,38,291,754,788,630,612,596,893,852,41,186,519,274,117,747,190,489,602,662,927,520,45,786,229,818,420,958,682,723,717,193,973,894,335,322,704,518,588,433,960,950,634,816,995,702,61,511,560,735,324,681,579,687,2,22,772,215,481,357,363,635,725,525,744,502,59,883,659,509,391,510,410,161,313,952,685,380,888,350,877,426,99,661,400,708,214,152,811],"correct_response":"arrowright","correct":true,"block_index":0,"presentation_index":2,"clique_size":267,"graph_size":1000,"graphs_couple":["0040_N1000_K0267_NOCLIQUE","0089_N1000_K0267_CLIQUE"],"trial_type":"canvas-keyboard-response","trial_index":52,"time_elapsed":35014,"internal_node_id":"0.0-51.0-0.0-0.0"},{"rt":null,"stimulus":"audio_feedback/right/coin01.mp3","response":null,"block_index":0,"presentation_index":2,"clique_size":267,"graph_size":1000,"graphs_couple":["0040_N1000_K0267_NOCLIQUE","0089_N1000_K0267_CLIQUE"],"trial_type":"audio-keyboard-response","trial_index":53,"time_elapsed":36003,"internal_node_id":"0.0-51.0-0.0-1.0"},{"rt":4,"response":"arrowleft","nodes_order":[130,560,750,435,966,30,938,866,765,505,14,617,672,798,725,497,783,461,22,799,64,899,939,449,894,671,537,955,487,353,159,163,659,697,93,319,314,228,823,405,791,52,521,732,801,446,215,675,455,478,511,312,867,3,146,618,145,587,694,76,993,347,49,689,166,333,531,692,236,638,471,647,398,686,416,774,13,202,210,57,752,641,185,930,480,890,278,433,596,105,301,762,991,849,384,997,633,351,661,193,811,846,47,120,907,854,38,557,957,65,298,459,609,119,286,441,362,339,936,363,754,776,415,630,802,196,133,81,220,606,967,386,498,16,941,260,813,273,870,18,225,410,516,338,523,972,282,82,637,655,984,257,503,428,959,91,311,767,26,836,727,4,658,734,898,714,585,758,285,741,79,723,227,473,201,438,243,296,858,113,933,142,408,712,575,839,769,810,522,85,176,703,778,489,167,624,935,280,0,869,759,962,549,494,788,330,125,845,150,902,635,986,315,172,958,2,190,612,634,453,526,621,700,40,629,19,109,687,601,529,68,852,911,829,622,756,238,595,56,256,440,470,17,814,493,27,74,593,546,863,602,608,865,824,218,833,182,584,468,269,134,124,177,910,355,540,695,820,830,815,223,952,490,990,107,925,760,422,614,964,118,361,432,380,691,517,364,669,477,486,821,188,652,710,715,678,62,456,162,988,246,248,740,927,366,636,226,214,886,382,653,720,462,914,20,266,431,948,859,9,199,856,32,944,58,619,579,883,21,954,574,819,36,132,344,439,761,543,322,485,580,205,924,913,475,292,662,420,882,165,291,171,258,507,806,676,392,797,916,135,393,349,442,138,140,149,631,881,187,945,334,289,213,893,784,917,928,253,992,960,24,976,837,772,499,492,771,542,479,860,796,872,632,650,950,861,717,343,151,919,488,466,573,385,15,736,623,174,413,668,272,460,293,482,979,216,290,777,862,379,838,277,816,792,12,359,37,89,864,180,891,961,153,857,414,848,425,208,506,567,733,342,383,200,757,396,709,463,571,496,726,626,100,204,934,491,660,336,832,288,241,591,189,161,294,817,481,265,550,707,970,101,234,92,780,375,932,374,888,340,469,828,305,912,901,147,137,175,43,233,625,255,274,519,211,71,423,768,46,437,251,920,144,931,654,48,217,53,965,722,66,325,683,110,613,556,129,677,822,452,474,388,376,826,70,643,926,8,403,303,604,738,827,682,178,702,323,111,63,335,681,270,875,104,690,321,716,548,922,352,317,400,968,7,818,929,306,244,444,533,674,876,953,742,851,534,706,563,179,532,657,834,464,565,831,279,649,807,157,283,168,915,744,377,131,603,909,853,896,611,586,905,69,126,268,476,402,399,904,680,755,840,80,458,999,731,648,502,387,160,946,123,346,597,973,430,728,436,102,908,472,879,600,50,719,39,368,667,666,394,745,128,381,651,103,994,141,590,184,985,895,287,753,10,897,254,404,154,615,84,500,411,688,561,426,530,551,259,276,264,87,51,514,281,541,685,451,373,35,921,262,785,555,581,221,397,644,843,616,947,337,713,607,219,770,995,963,409,789,645,663,670,627,209,155,639,535,570,299,553,358,942,795,501,406,158,983,90,169,235,194,326,117,427,331,29,558,873,884,136,971,718,847,764,842,304,640,495,518,313,395,483,527,989,877,564,975,33,747,878,73,173,83,805,390,44,170,401,308,457,181,794,903,307,447,247,628,855,568,809,940,885,844,748,698,562,704,78,86,906,996,198,448,320,513,341,699,524,545,554,156,28,656,237,367,297,737,751,443,45,620,240,808,509,345,354,434,749,773,34,743,874,31,96,977,445,239,646,6,378,249,949,55,127,566,99,721,569,578,850,192,552,974,937,191,512,693,275,812,528,525,231,365,67,318,825,998,332,252,880,786,978,547,407,245,572,588,267,536,419,139,871,295,242,868,421,360,72,372,42,75,23,679,951,94,106,835,97,197,701,206,987,232,599,25,350,121,371,504,116,800,746,122,708,696,918,892,329,370,309,943,544,598,515,412,982,779,230,739,54,229,300,766,605,1,782,95,417,284,790,980,112,302,59,803,642,508,711,164,520,467,98,484,207,143,781,730,673,186,88,589,763,183,787,429,212,889,450,328,576,559,729,539,224,11,793,424,583,356,592,60,222,684,594,841,735,115,108,77,577,804,724,391,357,923,5,148,454,114,981,203,665,610,348,271,316,956,887,152,510,465,389,310,418,969,324,582,263,775,538,705,61,900,261,41,369,195,664,250,327],"correct_response":"arrowright","correct":false,"block_index":0,"presentation_index":3,"clique_size":267,"graph_size":1000,"graphs_couple":["0002_N1000_K0267_NOCLIQUE","0082_N1000_K0267_CLIQUE"],"trial_type":"canvas-keyboard-response","trial_index":54,"time_elapsed":36954,"internal_node_id":"0.0-52.0-0.0-0.0"},{"rt":null,"stimulus":"audio_feedback/wrong/error01.mp3","response":null,"block_index":0,"presentation_index":3,"clique_size":267,"graph_size":1000,"graphs_couple":["0002_N1000_K0267_NOCLIQUE","0082_N1000_K0267_CLIQUE"],"trial_type":"audio-keyboard-response","trial_index":55,"time_elapsed":37964,"internal_node_id":"0.0-52.0-0.0-1.0"},{"rt":4,"response":"arrowright","nodes_order":[548,862,121,927,216,340,33,405,606,828,618,363,549,960,740,799,162,985,49,150,996,422,609,547,963,901,372,855,865,394,981,762,71,884,383,412,136,467,373,950,899,610,100,147,608,809,783,625,42,171,989,558,118,30,775,881,163,748,669,389,813,483,603,671,731,515,945,157,182,975,214,138,13,615,342,40,419,72,334,601,949,418,317,561,117,676,566,297,528,580,657,142,543,749,943,747,715,101,23,268,640,763,801,421,472,512,954,20,180,468,506,940,269,970,173,752,772,602,256,841,281,6,34,169,46,723,478,910,839,778,971,595,571,417,188,518,129,520,324,60,399,385,492,611,794,797,677,354,130,700,770,593,539,452,787,198,434,330,260,464,94,726,779,514,871,9,815,812,86,863,574,167,831,667,347,654,526,378,380,691,521,795,257,433,406,481,619,842,955,698,575,977,892,92,879,738,179,235,598,511,742,48,948,551,61,415,929,935,650,474,692,788,646,771,358,604,733,190,194,307,702,918,508,758,532,906,864,727,877,165,484,641,352,546,900,357,636,10,1,928,818,145,805,761,208,69,288,591,764,248,301,103,776,56,720,68,284,620,517,860,534,613,485,784,724,311,132,191,207,829,632,774,470,555,140,931,823,59,577,962,258,712,624,972,451,79,251,675,529,907,921,600,272,15,497,535,682,460,908,231,714,18,882,209,137,390,423,410,32,554,845,509,958,201,594,687,429,846,767,139,541,200,428,335,836,705,596,53,932,168,374,651,827,826,270,820,172,991,542,489,331,510,587,238,663,721,338,19,832,370,122,754,212,39,852,745,491,252,254,54,796,956,662,819,759,119,29,196,215,325,45,336,686,273,982,465,360,821,869,87,438,249,57,992,135,36,63,14,857,73,867,659,223,790,835,398,295,750,868,227,349,607,859,218,802,158,154,861,487,599,718,639,825,78,683,226,246,838,186,642,112,477,404,811,688,318,176,462,339,576,365,710,17,951,286,978,614,997,568,476,493,58,351,195,407,911,206,530,584,44,633,350,844,444,519,968,798,127,463,124,803,966,262,834,368,565,824,643,666,524,305,605,367,409,332,730,913,362,496,244,527,786,854,670,830,448,635,523,400,192,217,673,126,141,447,401,266,628,213,689,66,327,785,155,24,560,205,306,193,241,777,490,889,707,4,999,377,230,51,427,341,47,290,424,751,848,729,980,503,579,90,31,320,2,780,294,883,432,98,959,199,494,578,384,840,668,695,413,719,516,164,84,114,149,5,856,233,791,993,983,443,843,894,131,224,706,255,953,265,559,125,411,538,379,222,708,41,773,870,16,903,211,967,308,321,203,466,612,91,986,275,531,74,507,621,629,645,450,387,221,656,513,456,728,936,757,345,765,55,572,183,353,128,228,858,502,569,545,781,148,322,755,658,475,414,756,849,915,250,984,711,178,62,896,123,234,704,253,522,920,35,369,337,880,143,166,437,344,660,933,455,181,319,498,582,925,43,396,681,500,459,95,12,105,480,22,887,696,346,120,525,80,652,88,277,113,392,917,302,473,458,505,924,220,926,804,408,744,847,766,886,361,261,890,371,617,64,792,435,152,391,303,898,436,990,279,504,174,453,690,979,259,893,304,680,878,725,77,108,592,556,716,364,356,987,851,939,291,348,909,817,289,386,333,442,144,674,800,694,457,67,914,807,285,976,280,550,376,912,964,81,810,185,876,947,540,315,287,359,897,586,329,583,309,52,664,381,323,969,902,833,647,684,449,768,240,934,655,116,789,50,703,7,236,665,382,393,974,397,937,741,753,146,895,597,973,243,197,885,998,106,693,743,649,425,232,816,853,263,822,299,276,739,89,661,627,271,994,904,366,326,713,923,454,626,225,245,239,537,930,65,70,552,151,648,202,312,177,536,616,11,402,672,76,153,709,0,793,717,430,732,439,905,631,722,343,96,388,115,278,679,471,298,808,988,946,567,866,806,499,184,82,944,355,916,501,782,282,653,581,170,588,873,701,161,441,159,553,544,562,296,482,3,75,313,875,28,97,965,267,37,134,229,27,922,431,644,104,210,563,961,111,160,426,403,697,850,204,941,760,316,486,678,109,25,93,957,440,328,21,107,995,557,247,479,891,938,623,564,638,746,156,769,735,300,416,461,133,737,446,495,469,734,274,175,292,8,637,38,874,283,420,685,837,699,736,85,589,83,888,622,488,219,99,110,533,310,573,942,630,187,293,590,952,375,237,872,634,102,814,264,314,585,919,189,242,445,26,395,570],"correct_response":"arrowleft","correct":false,"block_index":0,"presentation_index":4,"clique_size":233,"graph_size":1000,"graphs_couple":["0095_N1000_K0233_CLIQUE","0010_N1000_K0233_NOCLIQUE"],"trial_type":"canvas-keyboard-response","trial_index":56,"time_elapsed":38912,"internal_node_id":"0.0-53.0-0.0-0.0"},{"rt":null,"stimulus":"audio_feedback/wrong/error01.mp3","response":null,"block_index":0,"presentation_index":4,"clique_size":233,"graph_size":1000,"graphs_couple":["0095_N1000_K0233_CLIQUE","0010_N1000_K0233_NOCLIQUE"],"trial_type":"audio-keyboard-response","trial_index":57,"time_elapsed":39924,"internal_node_id":"0.0-53.0-0.0-1.0"},{"rt":3,"response":"arrowleft","nodes_order":[569,571,659,213,513,325,694,205,128,273,297,202,549,999,777,44,985,5,886,818,581,631,397,445,303,910,268,176,240,127,901,736,926,780,349,98,693,62,323,360,257,314,753,18,915,199,865,727,255,389,135,481,277,834,408,407,498,793,452,945,538,594,787,21,562,30,784,472,352,317,860,402,117,591,919,182,940,390,106,842,943,866,775,265,276,57,138,361,932,232,216,401,877,832,958,97,377,851,914,495,875,935,284,40,455,551,331,878,288,957,89,605,745,986,849,16,14,48,336,533,801,175,477,794,0,38,471,827,516,209,125,712,679,119,922,210,446,45,559,396,381,965,622,347,435,918,370,386,417,433,854,576,774,788,201,354,810,937,180,683,620,611,264,959,900,681,493,305,676,983,374,478,328,682,298,144,112,177,167,74,339,979,769,467,462,632,597,835,686,642,629,713,211,663,634,903,587,126,313,164,102,698,615,345,997,601,241,758,499,670,936,528,613,96,882,803,105,163,980,939,32,993,833,702,998,473,342,896,424,830,261,531,934,165,951,880,340,242,570,289,160,644,333,243,895,746,574,850,721,356,332,376,426,228,322,136,327,162,836,607,747,353,894,351,973,290,121,550,282,966,429,87,742,355,155,984,638,110,362,503,525,248,740,655,782,487,853,200,905,658,392,49,647,178,427,795,573,403,771,68,168,474,913,701,664,728,956,548,190,497,258,593,765,580,246,166,185,975,961,723,804,671,893,229,964,461,139,302,855,496,223,543,726,393,813,468,2,748,368,612,215,39,482,425,338,231,95,293,872,85,421,204,584,171,929,540,992,100,572,599,109,643,696,703,546,504,888,982,805,897,743,811,767,476,236,883,443,489,343,444,994,10,781,450,640,31,103,230,172,375,716,65,507,63,796,47,619,931,81,137,78,626,846,7,111,307,501,17,661,483,824,907,816,189,350,614,514,260,912,253,539,689,161,226,84,708,423,312,395,785,263,1,561,527,952,274,399,814,537,600,902,553,909,898,133,960,923,436,203,887,348,695,458,181,618,52,730,766,649,752,118,470,383,844,692,648,589,772,566,346,969,657,25,870,391,364,56,691,759,500,357,720,565,186,250,480,148,891,699,58,146,623,295,416,950,624,547,463,773,906,610,704,59,577,50,904,908,388,633,379,505,145,506,768,987,207,946,131,143,225,786,732,437,430,848,685,881,80,173,224,372,15,428,822,722,755,34,690,843,779,734,221,526,365,578,563,384,208,308,799,330,285,485,309,269,222,188,989,762,320,744,153,754,718,113,275,447,852,512,299,281,665,108,798,23,451,123,924,22,440,677,608,363,603,149,321,841,294,770,156,394,378,460,194,206,978,662,410,71,867,469,459,420,140,928,79,304,318,715,862,335,710,300,977,64,672,700,641,815,697,750,486,532,69,456,400,564,558,534,899,385,20,380,845,382,413,857,9,217,415,948,590,863,858,995,519,122,653,159,751,731,77,838,680,933,873,847,212,879,296,371,83,72,116,783,521,840,36,757,406,151,272,582,560,761,925,518,434,760,422,621,453,479,789,602,971,91,104,60,675,861,46,99,449,917,825,251,707,114,75,916,763,991,287,334,33,592,749,797,88,885,310,776,41,259,714,82,639,448,245,411,651,306,197,579,920,238,823,418,733,270,764,719,3,864,510,239,674,42,967,953,169,37,616,660,868,739,687,398,152,938,890,341,254,737,637,129,606,324,141,871,568,921,66,359,218,86,990,735,4,756,557,147,235,369,927,26,475,981,541,283,24,344,494,267,142,13,556,198,187,837,949,941,101,668,286,706,545,942,889,366,617,666,535,673,839,596,115,358,54,329,652,214,502,819,76,90,684,94,817,252,6,717,555,645,191,491,291,27,654,441,820,262,802,278,490,988,438,12,884,405,625,431,856,319,609,809,968,280,8,628,70,419,738,315,869,529,688,192,55,630,195,729,724,414,266,522,92,184,28,432,874,311,174,524,61,53,233,544,790,808,954,196,741,484,19,409,930,11,43,107,709,711,635,588,67,237,530,150,439,646,154,373,279,554,725,650,301,536,158,130,412,492,585,831,244,962,974,705,947,678,271,93,892,227,517,595,220,963,326,520,292,955,509,29,911,859,627,170,972,464,567,256,466,51,806,193,523,876,821,791,515,234,800,944,179,807,812,586,976,583,792,124,157,442,367,604,511,598,465,247,132,826,387,134,542,575,316,778,669,667,120,35,249,457,656,636,404,996,73,552,508,454,219,970,488,829,828,337,183],"correct_response":"arrowleft","correct":true,"block_index":0,"presentation_index":5,"clique_size":233,"graph_size":1000,"graphs_couple":["0080_N1000_K0233_CLIQUE","0041_N1000_K0233_NOCLIQUE"],"trial_type":"canvas-keyboard-response","trial_index":58,"time_elapsed":40856,"internal_node_id":"0.0-54.0-0.0-0.0"},{"rt":null,"stimulus":"audio_feedback/right/coin01.mp3","response":null,"block_index":0,"presentation_index":5,"clique_size":233,"graph_size":1000,"graphs_couple":["0080_N1000_K0233_CLIQUE","0041_N1000_K0233_NOCLIQUE"],"trial_type":"audio-keyboard-response","trial_index":59,"time_elapsed":41843,"internal_node_id":"0.0-54.0-0.0-1.0"},{"rt":3,"response":"arrowleft","nodes_order":[323,886,240,398,243,55,541,3,239,943,970,333,648,173,860,196,509,817,814,235,891,262,505,674,683,883,352,800,810,761,752,845,557,529,75,942,536,214,567,443,45,732,272,237,600,467,924,769,241,590,954,527,165,766,754,890,106,962,902,281,105,564,597,63,483,849,228,839,616,767,514,746,658,836,434,819,701,737,778,289,461,696,421,892,297,485,832,364,418,140,735,621,656,12,801,292,508,633,191,67,426,354,401,57,641,102,740,387,255,42,29,915,305,342,987,997,582,425,182,460,927,450,2,798,341,94,481,72,144,195,640,453,103,269,5,985,846,562,813,835,205,172,578,792,389,212,726,264,487,950,793,638,975,953,552,986,908,76,131,14,780,956,437,250,791,92,917,882,390,691,502,350,432,87,511,438,584,111,573,925,47,969,606,825,436,671,498,826,964,21,404,993,685,343,359,990,10,107,249,334,906,252,829,168,381,700,560,299,207,805,309,912,974,593,549,899,267,651,946,160,366,802,729,727,910,782,831,788,851,652,88,989,225,645,623,795,475,65,64,923,604,275,124,995,507,324,358,738,413,395,876,635,71,449,707,391,424,822,519,286,313,40,669,146,488,847,501,922,875,456,4,725,100,43,232,357,101,500,316,6,245,251,928,496,478,637,693,668,644,864,856,667,188,148,781,710,484,234,178,200,865,282,399,151,16,457,193,596,868,246,873,307,429,705,238,750,586,682,39,771,572,834,296,821,569,550,503,592,837,542,227,583,170,472,222,374,189,20,747,379,626,694,877,314,921,284,375,599,363,733,293,539,672,776,132,465,524,548,439,622,812,278,887,497,13,932,320,422,285,459,808,920,356,660,804,414,18,933,28,510,142,220,543,84,977,751,799,777,559,7,639,360,480,208,730,349,198,383,327,69,68,270,992,566,492,367,768,384,629,27,408,346,110,109,763,731,881,161,655,312,779,180,317,369,149,479,759,854,815,676,615,874,417,300,842,762,204,201,430,463,78,268,679,441,368,230,365,61,506,756,931,870,156,123,135,577,370,827,59,794,719,803,894,263,31,973,129,816,697,717,482,736,486,904,544,145,96,901,824,857,36,558,37,30,164,219,279,863,287,866,169,869,576,77,670,427,627,351,174,958,155,466,790,150,276,978,999,469,152,533,74,420,982,8,141,114,32,311,209,112,335,739,184,266,117,554,618,540,345,844,624,646,594,50,862,321,344,848,744,568,585,960,120,775,288,631,122,530,53,256,634,265,415,833,116,410,526,589,444,60,525,758,385,447,202,614,397,258,753,411,677,914,326,290,489,406,229,11,934,1,261,907,91,133,944,784,650,446,254,462,654,199,473,823,565,888,433,661,147,454,905,51,93,136,647,337,260,504,764,760,190,983,119,838,226,994,81,828,217,859,382,308,115,203,820,665,471,248,789,54,587,325,445,611,35,495,724,70,703,236,26,702,879,715,348,402,613,911,22,903,570,423,563,435,628,400,807,452,89,971,998,80,945,713,319,211,657,371,215,405,984,330,996,708,981,126,965,378,949,380,513,841,83,963,967,811,373,118,980,723,900,338,56,940,23,607,512,331,33,561,716,328,231,58,186,686,73,895,95,25,197,898,938,259,957,598,681,247,605,664,90,257,108,988,872,306,742,130,909,175,38,722,545,340,493,442,765,972,785,749,734,138,695,183,159,273,223,619,858,277,412,85,291,918,809,428,612,470,274,861,244,407,580,386,62,947,666,609,213,961,796,531,699,706,127,556,474,551,579,179,662,233,516,128,171,770,490,840,843,185,522,315,711,125,916,663,468,455,86,757,659,419,187,499,979,44,143,177,720,464,930,396,787,0,336,534,82,718,99,687,318,121,951,361,684,955,755,528,690,893,850,476,515,748,242,783,167,608,347,547,49,553,283,310,162,218,416,377,867,538,774,617,959,298,884,134,154,139,304,704,34,581,176,680,451,163,603,537,295,630,48,216,376,555,17,104,302,773,588,968,712,521,294,575,253,41,494,392,192,113,280,878,935,620,632,15,709,741,355,853,523,976,393,728,678,772,153,896,855,885,98,532,743,440,403,688,224,157,431,339,448,673,322,97,936,698,919,388,46,332,897,206,210,625,926,372,535,271,745,595,19,692,601,353,394,79,546,937,301,649,721,477,642,653,194,991,929,871,221,518,610,602,520,329,952,52,137,517,458,689,966,948,939,24,675,941,181,636,362,880,158,166,806,852,818,797,786,303,714,9,491,643,66,409,591,889,913,574,571,830],"correct_response":"arrowleft","correct":true,"block_index":0,"presentation_index":6,"clique_size":217,"graph_size":1000,"graphs_couple":["0025_N1000_K0217_CLIQUE","0068_N1000_K0217_NOCLIQUE"],"trial_type":"canvas-keyboard-response","trial_index":60,"time_elapsed":42798,"internal_node_id":"0.0-55.0-0.0-0.0"},{"rt":null,"stimulus":"audio_feedback/right/coin01.mp3","response":null,"block_index":0,"presentation_index":6,"clique_size":217,"graph_size":1000,"graphs_couple":["0025_N1000_K0217_CLIQUE","0068_N1000_K0217_NOCLIQUE"],"trial_type":"audio-keyboard-response","trial_index":61,"time_elapsed":43784,"internal_node_id":"0.0-55.0-0.0-1.0"},{"rt":5,"response":"arrowleft","nodes_order":[853,493,326,895,845,462,172,971,748,589,712,139,34,308,178,923,39,720,267,66,731,440,968,577,810,541,109,254,22,831,324,707,113,430,516,181,43,346,460,104,165,638,933,296,198,146,91,530,129,14,380,451,12,644,389,354,702,409,851,318,187,235,554,142,863,617,202,503,433,948,581,727,204,96,544,671,499,287,781,974,666,597,355,994,99,779,799,964,454,159,446,60,458,742,854,23,987,913,21,206,674,339,705,584,501,366,550,932,557,903,216,343,211,502,628,304,598,341,361,681,771,482,774,856,983,813,56,830,879,798,137,228,610,303,826,734,442,83,775,978,51,560,239,383,841,10,420,812,969,698,943,507,786,564,797,357,973,855,668,934,435,631,128,149,981,573,148,583,904,290,866,641,7,556,604,868,268,896,98,989,350,795,914,593,504,660,526,483,962,875,449,696,661,920,214,990,177,892,145,773,814,757,77,16,154,356,954,565,134,902,299,224,323,46,105,931,563,840,410,897,713,302,283,40,132,27,521,905,437,621,63,466,107,161,229,590,542,888,823,170,115,935,37,392,928,244,953,715,342,752,958,615,859,221,682,11,183,539,439,448,756,73,678,486,472,782,230,643,360,351,537,686,257,222,816,470,419,75,36,219,0,151,190,624,157,893,687,456,288,81,600,559,579,201,790,739,402,147,890,476,536,728,548,385,17,618,47,276,194,74,732,545,634,455,192,640,428,117,955,403,100,188,960,452,408,166,825,312,295,860,694,369,367,793,90,498,205,44,737,625,425,169,961,280,298,340,791,348,908,927,347,186,414,150,517,174,386,86,921,606,108,750,929,658,909,976,735,576,513,956,783,126,613,654,900,253,337,946,885,591,265,886,938,57,238,184,89,344,185,119,241,683,947,700,429,495,114,759,880,543,704,353,249,972,278,384,478,18,333,655,582,941,397,523,916,930,755,764,718,922,512,884,657,217,191,179,297,400,633,570,474,289,19,85,54,396,894,182,477,68,614,891,175,770,122,842,110,760,319,505,252,193,322,271,45,675,251,42,407,315,620,695,242,375,824,806,218,269,656,729,587,595,272,391,722,788,112,203,627,388,999,168,817,711,568,406,50,4,330,802,227,176,133,736,135,585,358,741,412,234,258,243,153,231,225,473,689,479,850,532,510,876,662,950,716,709,260,286,803,208,167,918,607,551,494,942,819,248,827,910,833,294,48,220,381,79,936,592,199,979,596,450,368,306,459,393,92,256,131,431,528,9,444,434,264,6,571,195,599,659,586,857,761,769,519,475,580,471,246,605,906,794,120,130,26,331,525,436,480,646,371,226,848,622,30,952,38,837,173,636,919,461,285,399,676,307,796,804,546,376,993,762,250,881,103,93,677,867,65,121,663,209,635,490,492,680,215,111,309,485,67,378,118,768,763,996,552,808,180,359,778,325,578,210,822,629,293,608,561,672,980,335,588,28,648,141,438,818,387,911,899,101,310,738,858,963,72,311,887,829,5,284,416,321,740,247,982,31,652,609,500,317,667,651,156,626,292,688,424,413,745,944,965,872,835,653,64,572,314,3,632,869,313,143,62,547,261,847,619,24,155,481,33,877,417,69,29,616,726,645,61,724,349,828,861,59,751,721,152,1,691,949,836,925,329,733,882,515,744,422,540,418,758,467,398,997,874,558,777,567,468,332,789,714,334,642,390,282,328,245,13,338,487,453,838,506,84,669,985,889,970,864,692,811,223,529,97,792,937,53,78,365,263,281,805,102,233,277,820,158,878,862,469,489,484,300,162,259,488,432,915,527,730,926,164,650,708,291,719,144,871,637,189,821,977,82,940,305,767,58,555,988,240,957,509,834,316,236,787,562,772,966,95,611,320,411,765,15,701,690,602,959,336,998,991,784,815,232,364,362,491,465,843,520,213,553,405,535,924,379,464,753,549,844,967,370,441,776,327,601,123,743,986,703,534,873,647,514,995,25,20,163,849,670,80,197,574,200,754,975,255,603,207,301,160,723,2,106,382,992,32,679,443,423,395,594,275,127,807,116,125,538,839,917,684,865,569,404,35,566,717,445,984,673,415,832,907,800,345,531,273,945,71,693,766,8,664,649,706,575,352,212,508,262,457,699,52,377,363,623,870,912,747,76,463,883,270,497,124,665,87,374,279,138,710,88,401,725,496,901,447,196,70,372,612,685,171,511,373,136,237,852,518,524,274,394,533,846,809,801,266,746,421,94,939,697,630,427,49,785,749,898,951,426,639,140,41,522,55,780],"correct_response":"arrowleft","correct":true,"block_index":0,"presentation_index":7,"clique_size":217,"graph_size":1000,"graphs_couple":["0017_N1000_K0217_CLIQUE","0026_N1000_K0217_NOCLIQUE"],"trial_type":"canvas-keyboard-response","trial_index":62,"time_elapsed":44718,"internal_node_id":"0.0-56.0-0.0-0.0"},{"rt":null,"stimulus":"audio_feedback/right/coin01.mp3","response":null,"block_index":0,"presentation_index":7,"clique_size":217,"graph_size":1000,"graphs_couple":["0017_N1000_K0217_CLIQUE","0026_N1000_K0217_NOCLIQUE"],"trial_type":"audio-keyboard-response","trial_index":63,"time_elapsed":45703,"internal_node_id":"0.0-56.0-0.0-1.0"},{"rt":3,"response":"arrowright","nodes_order":[949,178,131,614,897,655,314,976,943,18,251,362,487,80,276,771,543,699,785,425,829,15,385,355,500,272,720,482,845,91,159,199,383,911,426,715,459,839,684,650,376,847,960,332,55,48,515,535,106,826,183,210,652,269,834,181,505,552,764,544,465,738,293,968,806,661,549,368,123,39,164,707,660,804,937,30,853,255,612,143,729,889,52,379,153,4,33,190,824,193,563,211,138,454,499,495,624,76,155,230,975,939,529,430,795,393,883,894,842,627,938,458,105,322,925,194,212,711,762,23,923,668,347,296,550,197,964,244,288,78,49,307,539,846,287,567,956,722,746,920,96,849,875,835,42,786,649,506,679,260,7,283,744,442,316,160,961,174,791,801,399,339,782,400,378,41,398,514,955,950,635,147,468,179,555,928,709,370,154,978,144,924,134,235,601,644,692,622,429,336,222,456,972,223,208,341,346,749,560,902,323,568,127,462,238,517,642,404,670,351,734,121,75,326,689,237,145,918,473,756,621,61,645,542,954,431,146,752,6,525,604,188,693,926,719,249,934,112,290,844,582,919,501,409,116,874,631,417,485,53,122,329,511,974,885,971,922,394,163,390,690,397,675,71,640,867,868,784,278,79,796,83,732,945,841,201,551,772,730,585,987,609,319,478,67,408,248,234,225,783,491,226,402,74,389,831,966,750,392,810,965,951,855,108,372,262,615,848,779,168,657,104,880,747,353,95,86,748,343,799,628,759,616,977,774,953,817,843,637,227,656,126,576,12,878,349,366,667,361,203,263,758,432,887,556,232,113,900,239,142,130,219,158,565,765,536,873,659,187,348,815,297,254,305,751,484,828,984,306,901,962,886,267,620,382,523,571,220,204,22,73,13,673,172,712,760,299,51,44,755,250,114,554,626,467,365,140,419,935,680,450,289,457,405,996,983,632,685,461,545,60,654,215,634,789,992,498,504,438,531,335,170,8,838,580,196,686,421,24,264,695,970,11,136,767,569,832,29,566,340,412,704,522,63,513,77,558,10,721,436,912,559,662,942,308,941,213,959,420,38,342,182,31,617,364,135,441,540,895,27,877,72,740,879,128,957,132,414,345,503,698,745,518,481,713,70,681,486,440,787,496,607,69,50,36,100,822,279,57,716,81,62,507,165,166,295,896,561,994,985,871,718,330,821,54,594,927,447,93,247,898,572,21,573,202,980,411,763,292,581,494,338,195,186,688,446,820,449,474,530,882,728,266,396,221,982,1,557,691,884,537,910,217,605,416,773,375,19,460,862,524,586,58,907,769,294,603,574,480,869,969,151,819,133,533,16,592,304,435,798,9,257,118,658,981,546,40,651,384,674,380,176,731,173,35,714,702,696,861,150,209,472,792,367,587,809,562,881,445,633,315,103,703,88,781,2,216,325,516,236,139,723,359,437,805,3,117,726,285,337,625,519,921,59,993,265,119,101,595,84,872,989,97,647,109,37,733,452,613,646,916,277,588,479,917,538,988,705,20,493,410,464,256,407,124,780,593,152,892,205,149,663,931,770,300,369,94,245,717,354,483,161,610,665,311,936,228,623,859,391,422,180,34,451,310,708,619,291,253,65,986,564,836,246,177,455,502,107,363,775,509,727,636,477,742,492,591,344,82,120,788,677,929,171,606,68,888,381,427,930,830,854,317,148,286,331,630,395,963,638,979,990,600,434,618,424,608,532,967,803,672,98,833,229,512,687,793,162,258,915,309,611,840,777,743,527,528,371,932,333,46,137,386,324,724,303,973,284,224,280,837,639,940,933,87,490,641,510,387,697,423,401,598,790,811,577,629,156,602,776,240,373,157,141,589,584,857,192,45,448,489,737,570,377,999,274,643,259,357,271,406,710,899,579,701,433,914,946,548,184,908,428,200,852,275,827,735,475,903,508,5,797,860,813,754,995,25,115,243,694,320,578,90,891,470,864,47,26,534,757,948,167,547,374,904,453,358,352,664,403,669,312,488,648,741,0,110,768,700,214,313,189,802,863,823,476,242,807,28,252,890,597,905,676,818,825,111,471,282,778,816,856,185,43,991,415,302,463,794,526,736,952,761,913,753,301,520,850,198,998,17,947,443,129,682,590,851,653,666,444,497,808,334,893,32,439,553,92,241,99,870,231,800,350,706,906,909,298,321,56,725,218,360,356,466,125,14,944,89,521,169,469,268,683,175,596,273,739,671,858,413,388,233,270,102,575,814,678,766,866,958,599,327,85,318,261,865,812,64,206,207,191,541,281,997,583,328,66,418,876],"correct_response":"arrowright","correct":true,"block_index":0,"presentation_index":8,"clique_size":200,"graph_size":1000,"graphs_couple":["0012_N1000_K0200_NOCLIQUE","0056_N1000_K0200_CLIQUE"],"trial_type":"canvas-keyboard-response","trial_index":64,"time_elapsed":46654,"internal_node_id":"0.0-57.0-0.0-0.0"},{"rt":null,"stimulus":"audio_feedback/right/coin01.mp3","response":null,"block_index":0,"presentation_index":8,"clique_size":200,"graph_size":1000,"graphs_couple":["0012_N1000_K0200_NOCLIQUE","0056_N1000_K0200_CLIQUE"],"trial_type":"audio-keyboard-response","trial_index":65,"time_elapsed":47643,"internal_node_id":"0.0-57.0-0.0-1.0"},{"rt":3,"response":"arrowleft","nodes_order":[930,751,398,778,628,341,593,730,522,518,3,834,203,550,542,980,382,599,996,7,785,746,125,721,261,937,956,139,609,331,658,649,692,145,906,894,804,224,802,657,397,917,356,953,108,764,414,49,530,223,378,190,132,271,383,710,913,877,761,777,852,954,548,591,813,443,389,133,624,112,533,994,892,64,663,181,128,615,650,579,743,878,966,932,880,910,183,992,454,921,446,574,807,394,543,967,186,904,825,336,153,782,772,329,789,768,106,379,689,434,984,307,737,80,342,357,10,208,508,797,672,661,0,957,756,516,169,827,470,280,252,676,997,1,496,747,544,116,151,268,701,719,79,104,507,458,808,740,122,410,13,296,455,646,371,16,589,152,863,700,744,596,637,897,889,792,849,164,683,93,99,384,352,140,503,850,784,854,585,298,216,444,89,366,126,669,323,428,858,915,396,862,229,888,174,795,490,293,759,87,655,103,896,815,439,707,843,975,590,44,502,283,539,248,643,403,182,289,344,883,691,871,561,939,21,53,155,520,415,612,750,943,553,476,886,668,390,193,37,556,313,337,51,853,830,731,110,519,682,736,303,349,614,634,448,950,474,163,732,687,923,885,346,188,714,274,172,340,835,432,57,573,227,150,221,832,292,135,908,18,250,947,582,706,197,407,417,586,900,664,787,665,970,48,236,156,786,372,308,304,603,631,890,940,973,912,124,685,60,866,977,510,632,22,180,278,230,697,648,584,285,801,240,406,483,534,326,258,393,284,86,9,903,204,469,160,767,540,821,472,451,570,781,70,949,617,270,176,299,494,192,621,481,558,387,350,790,874,381,330,639,355,597,12,588,136,144,499,907,495,68,38,322,629,987,404,766,130,976,641,11,438,362,670,667,137,605,15,218,91,963,742,55,262,85,426,243,857,81,546,175,465,325,411,66,96,613,771,666,84,430,402,806,242,798,114,370,315,652,184,471,118,440,870,709,117,498,479,840,865,14,895,121,501,141,972,217,101,846,911,473,113,249,162,111,255,335,6,563,638,559,608,210,893,232,460,601,983,353,269,971,213,254,220,851,420,191,88,199,965,765,720,703,484,557,185,238,179,856,934,905,328,554,231,809,466,424,75,694,360,568,528,688,532,123,527,400,239,497,805,986,623,324,525,560,17,56,59,26,119,723,327,489,735,959,577,260,978,625,25,143,358,774,20,524,147,42,226,633,277,884,762,517,531,58,702,529,413,726,339,32,54,594,257,168,705,201,779,265,859,52,78,279,841,462,899,898,447,222,551,109,120,810,148,391,241,468,671,760,207,318,107,985,237,757,449,581,770,431,607,640,653,482,72,129,33,435,312,263,914,423,19,173,291,630,839,715,575,436,247,456,704,788,375,149,918,166,333,200,491,198,515,409,134,422,565,5,36,811,40,500,754,332,47,452,606,367,794,24,693,300,345,235,826,416,69,541,225,763,610,869,392,916,170,246,419,909,989,28,320,699,927,131,506,311,564,868,567,675,695,95,990,724,537,677,618,46,816,796,445,729,35,622,316,314,286,142,572,189,157,982,219,855,773,171,485,555,960,698,351,433,301,791,817,919,319,267,442,845,847,552,728,234,275,583,576,178,803,944,395,679,348,376,215,824,102,39,354,961,981,338,405,334,377,938,936,838,306,925,595,475,100,82,819,935,305,818,964,295,712,511,364,659,690,717,753,998,678,651,521,662,545,800,861,962,427,991,882,578,30,205,401,635,480,829,769,50,879,741,63,513,716,945,83,369,620,755,902,399,73,177,211,734,368,881,867,535,611,463,711,988,244,523,512,202,41,569,478,969,580,309,812,421,828,256,619,514,297,90,461,61,718,933,76,673,547,758,388,616,282,776,272,748,74,696,374,842,23,793,29,386,928,361,684,94,477,105,97,138,733,412,860,951,65,738,264,799,67,901,887,408,287,288,167,674,783,509,194,562,266,739,418,365,626,538,536,725,948,159,713,228,363,686,752,276,245,814,942,4,425,34,115,294,974,929,504,968,43,505,745,487,196,488,644,146,749,441,92,385,836,995,873,837,891,302,922,233,165,209,45,627,979,820,526,952,347,62,656,317,872,660,993,636,823,98,999,647,187,310,437,251,681,926,31,281,214,290,875,831,492,592,848,920,158,373,2,864,206,77,566,876,654,486,467,924,642,645,727,493,587,27,722,259,154,708,343,958,780,459,212,600,931,457,8,602,429,775,549,598,464,253,195,680,946,273,941,380,844,955,453,71,450,127,359,161,321,604,571,833,822],"correct_response":"arrowleft","correct":true,"block_index":0,"presentation_index":9,"clique_size":200,"graph_size":1000,"graphs_couple":["0016_N1000_K0200_CLIQUE","0035_N1000_K0200_NOCLIQUE"],"trial_type":"canvas-keyboard-response","trial_index":66,"time_elapsed":48593,"internal_node_id":"0.0-58.0-0.0-0.0"},{"rt":null,"stimulus":"audio_feedback/right/coin01.mp3","response":null,"block_index":0,"presentation_index":9,"clique_size":200,"graph_size":1000,"graphs_couple":["0016_N1000_K0200_CLIQUE","0035_N1000_K0200_NOCLIQUE"],"trial_type":"audio-keyboard-response","trial_index":67,"time_elapsed":49584,"internal_node_id":"0.0-58.0-0.0-1.0"},{"rt":1275,"response":"arrowleft","nodes_order":[213,429,798,787,366,897,904,56,168,479,945,694,25,434,867,863,253,453,264,800,145,692,153,644,290,30,813,210,896,175,838,259,428,285,617,293,766,788,505,583,911,899,626,676,135,633,67,674,107,828,129,941,632,932,40,234,331,856,154,240,547,218,646,484,74,969,563,489,268,824,913,60,440,900,61,982,927,375,936,771,77,380,988,367,890,123,859,424,760,981,191,35,912,47,136,64,347,831,951,412,239,357,142,6,810,621,678,717,263,726,32,684,208,649,587,940,269,922,753,146,925,279,882,691,243,20,852,432,377,284,441,227,5,445,305,915,196,518,842,132,379,516,698,480,352,62,847,630,257,696,111,260,886,50,921,659,965,372,437,341,713,119,170,960,120,282,261,736,459,407,781,746,636,683,326,242,392,556,536,8,807,779,82,217,355,140,548,335,78,975,13,943,693,767,43,639,711,368,517,527,112,104,564,607,495,622,931,612,148,792,23,127,33,816,558,275,499,22,225,920,832,289,198,854,450,782,690,416,933,525,588,68,526,774,569,114,7,703,395,237,524,351,635,283,709,332,508,950,979,722,860,685,346,720,578,209,26,52,361,641,710,155,585,778,637,620,482,159,580,400,759,747,627,333,756,978,733,973,474,815,137,354,76,391,586,452,657,599,893,496,929,677,408,467,609,553,296,967,308,874,475,245,619,38,557,949,364,567,385,721,738,238,4,203,514,679,891,608,785,338,27,926,273,39,919,301,795,425,471,265,271,373,345,772,310,980,45,176,41,336,318,378,42,958,841,869,116,584,219,861,962,509,258,601,192,718,109,149,322,9,546,944,983,999,362,500,512,794,894,916,862,232,725,179,519,723,686,118,202,125,954,783,554,898,750,895,638,857,611,193,250,923,883,28,96,113,963,324,303,387,185,613,946,317,545,511,411,995,255,773,433,987,618,73,430,939,840,892,83,565,121,661,763,205,134,431,820,66,272,589,79,707,295,204,277,664,216,876,768,827,955,719,439,469,909,976,681,836,423,543,764,665,180,742,99,819,849,901,737,211,835,72,147,561,765,606,533,106,812,314,422,974,581,914,497,171,560,598,286,865,446,829,818,63,740,468,605,531,128,745,594,88,571,143,502,699,689,656,650,501,834,12,928,103,724,998,194,144,59,281,990,830,986,881,850,0,494,157,600,660,241,405,596,165,229,382,997,604,492,37,924,141,348,790,390,538,224,167,447,455,14,420,739,687,102,806,360,952,668,872,957,195,648,233,752,487,53,615,460,300,81,414,968,970,399,642,762,730,226,413,70,705,592,884,402,520,797,708,456,935,276,122,521,532,396,131,110,992,490,222,552,24,248,645,117,595,162,871,330,702,151,312,404,488,491,741,302,555,244,80,775,769,572,603,454,506,55,173,507,16,393,577,700,306,839,472,189,363,371,826,184,743,221,712,776,90,1,386,984,682,793,186,875,754,158,31,523,84,574,163,715,993,266,206,814,86,21,133,680,65,138,716,197,902,309,477,334,749,731,349,770,498,643,36,942,802,100,784,903,94,235,539,320,10,321,177,735,19,864,183,343,562,298,436,634,356,549,791,732,252,18,325,199,658,231,653,297,866,417,220,46,457,918,614,625,443,462,75,937,964,652,448,597,887,870,695,985,647,340,629,977,350,761,328,610,292,917,796,287,534,966,71,319,383,907,291,323,851,58,2,397,299,419,236,575,989,654,476,748,994,848,947,541,478,602,251,401,799,879,930,566,270,464,959,172,444,481,51,207,804,868,662,190,212,426,359,181,461,246,663,697,182,616,631,384,530,786,316,744,666,670,247,590,843,780,93,54,101,544,672,374,671,885,442,714,529,873,327,888,394,755,728,908,825,139,486,701,169,953,809,537,403,166,381,406,307,188,833,817,845,15,17,415,675,49,551,757,853,515,435,540,174,624,344,274,473,510,87,152,758,398,230,370,801,889,376,315,288,108,201,228,410,262,200,734,673,844,582,777,409,160,48,808,640,427,97,591,313,483,948,493,89,971,215,570,823,803,878,576,389,628,655,294,156,470,751,910,522,579,972,187,124,688,805,991,905,504,105,961,369,161,855,29,846,254,451,178,704,365,69,388,822,528,880,339,535,906,513,706,542,85,278,150,34,858,996,91,267,126,458,421,95,821,550,358,92,485,164,337,214,568,559,11,57,98,3,877,223,418,956,304,256,311,669,727,729,342,623,280,837,466,449,249,938,789,503,934,651,463,811,130,667,353,44,115,593,465,573,329,438],"correct_response":"arrowright","correct":false,"block_index":0,"presentation_index":10,"clique_size":183,"graph_size":1000,"graphs_couple":["0057_N1000_K0183_NOCLIQUE","0023_N1000_K0183_CLIQUE"],"trial_type":"canvas-keyboard-response","trial_index":68,"time_elapsed":51822,"internal_node_id":"0.0-59.0-0.0-0.0"},{"rt":null,"stimulus":"audio_feedback/wrong/error01.mp3","response":null,"block_index":0,"presentation_index":10,"clique_size":183,"graph_size":1000,"graphs_couple":["0057_N1000_K0183_NOCLIQUE","0023_N1000_K0183_CLIQUE"],"trial_type":"audio-keyboard-response","trial_index":69,"time_elapsed":52823,"internal_node_id":"0.0-59.0-0.0-1.0"},{"rt":49,"response":"arrowleft","nodes_order":[422,107,985,437,344,105,668,980,647,659,799,892,746,573,963,836,128,954,535,796,482,930,803,373,85,913,820,527,173,359,848,805,876,834,557,643,632,526,955,300,499,620,138,468,977,309,793,431,920,874,381,347,27,243,15,929,238,708,188,269,99,742,549,734,529,339,648,497,274,428,506,6,398,255,181,500,78,2,639,35,75,319,612,675,998,380,654,174,152,265,341,753,61,40,590,172,70,822,413,765,215,693,996,266,127,153,721,330,170,464,511,305,576,394,723,958,270,877,665,278,588,84,748,140,298,640,366,833,570,169,602,660,115,360,118,629,332,451,965,563,763,467,375,225,915,167,362,253,256,984,456,488,766,613,77,29,390,635,785,429,696,158,716,418,289,986,4,228,427,981,196,122,552,779,825,248,32,727,307,933,900,426,187,950,783,598,135,740,185,142,697,923,754,218,71,787,216,657,621,711,106,247,705,407,48,264,252,797,798,816,842,762,781,303,316,409,385,899,60,49,508,694,580,440,383,231,868,509,538,622,9,479,441,503,304,281,680,276,542,450,584,804,453,485,771,132,353,279,387,664,634,302,80,1,896,46,818,343,395,117,518,351,325,890,382,720,997,454,478,559,819,168,928,569,815,636,232,562,154,651,677,534,924,277,261,528,120,725,671,54,434,772,600,731,410,555,601,361,475,553,607,905,669,617,504,193,230,322,342,164,767,286,862,871,144,191,323,285,317,548,108,699,706,421,130,399,460,314,661,290,738,405,483,724,301,729,690,824,114,283,212,987,466,44,235,183,869,229,505,7,583,691,596,455,57,58,956,62,719,594,43,873,879,523,507,710,916,396,284,126,249,76,800,999,885,907,143,530,377,462,932,577,320,730,189,540,595,918,331,41,204,692,121,226,906,313,30,137,136,376,18,895,295,898,672,349,599,72,227,826,251,239,625,578,452,843,397,789,847,214,124,159,878,262,402,713,493,224,608,329,481,98,561,837,768,925,808,823,946,446,821,10,646,259,532,113,420,268,794,653,962,735,22,245,739,972,296,990,514,568,404,855,688,282,889,103,263,947,119,759,480,571,566,942,123,908,310,312,574,941,658,780,857,211,751,717,993,618,442,311,246,989,110,308,315,806,260,379,718,988,433,649,8,994,116,744,241,850,31,978,287,139,841,146,81,707,579,586,792,412,883,875,448,683,811,749,851,430,202,368,854,64,516,240,655,234,221,21,910,969,459,550,995,156,12,894,28,927,860,161,912,864,937,645,788,87,991,461,11,59,357,50,587,630,321,86,814,911,919,489,175,866,521,16,921,444,370,678,17,369,401,546,364,790,575,408,543,687,42,750,160,795,861,476,39,541,111,145,166,967,975,89,536,722,903,756,217,465,870,233,354,417,935,63,473,34,192,209,352,104,904,157,406,68,195,974,838,881,533,901,976,92,292,294,345,436,13,971,791,614,709,973,704,151,498,472,184,477,807,936,582,141,627,863,886,372,572,679,931,865,732,859,623,222,386,827,755,490,328,812,524,19,384,782,94,100,414,853,544,288,547,355,280,979,702,194,926,258,893,56,934,606,517,487,439,176,897,112,604,662,203,356,832,131,828,23,852,964,951,419,593,484,887,761,435,597,714,24,589,236,242,537,501,773,250,743,293,592,888,200,801,20,952,650,340,445,943,3,403,327,560,198,432,363,416,134,752,502,673,741,337,686,495,496,737,922,519,667,348,513,388,5,551,616,567,463,809,47,474,365,858,97,817,835,712,585,150,949,666,917,944,681,449,88,213,65,74,95,674,346,38,556,609,652,443,983,736,701,162,830,177,147,695,784,219,148,700,207,73,358,338,786,55,769,829,326,350,961,199,914,324,968,611,69,90,512,471,591,163,411,776,392,83,254,67,186,938,633,684,581,715,201,810,208,656,53,637,774,93,79,565,165,206,66,492,51,603,778,641,520,689,554,849,267,626,223,91,982,960,682,36,14,757,129,531,33,745,374,367,438,726,698,486,545,619,82,945,457,758,770,685,525,891,777,220,628,125,271,26,333,845,992,45,494,676,334,522,275,970,244,378,909,733,856,171,470,775,336,210,179,424,391,624,423,615,273,491,272,393,882,663,155,948,940,631,318,802,257,109,389,840,966,959,190,813,299,880,670,939,728,872,515,197,564,469,182,415,957,703,953,638,447,644,747,291,96,884,52,178,605,371,902,425,558,760,297,867,839,180,458,764,205,831,102,101,844,846,0,510,237,37,335,25,610,306,400,539,642,133,149],"correct_response":"arrowright","correct":false,"block_index":0,"presentation_index":11,"clique_size":183,"graph_size":1000,"graphs_couple":["0072_N1000_K0183_NOCLIQUE","0098_N1000_K0183_CLIQUE"],"trial_type":"canvas-keyboard-response","trial_index":70,"time_elapsed":53814,"internal_node_id":"0.0-60.0-0.0-0.0"},{"rt":null,"stimulus":"audio_feedback/wrong/error01.mp3","response":null,"block_index":0,"presentation_index":11,"clique_size":183,"graph_size":1000,"graphs_couple":["0072_N1000_K0183_NOCLIQUE","0098_N1000_K0183_CLIQUE"],"trial_type":"audio-keyboard-response","trial_index":71,"time_elapsed":54803,"internal_node_id":"0.0-60.0-0.0-1.0"},{"rt":3,"response":"arrowleft","nodes_order":[309,528,708,426,973,761,405,879,52,58,152,464,224,531,883,399,111,198,338,792,320,109,551,743,808,280,15,695,836,704,203,696,59,36,607,279,481,987,469,869,381,893,956,303,594,54,635,302,188,860,43,53,693,709,580,819,789,427,81,403,305,804,139,951,596,497,825,278,921,125,523,721,85,272,150,103,699,478,507,432,770,985,63,933,241,99,116,408,495,983,632,131,0,242,862,768,853,437,367,246,680,470,558,608,413,238,597,362,993,623,824,64,991,86,314,687,157,289,297,365,154,213,366,938,104,14,995,389,228,940,354,776,336,442,113,944,518,928,626,301,114,37,504,383,982,966,650,201,145,105,500,247,931,392,66,352,23,972,350,270,992,901,482,604,772,673,235,757,33,184,361,965,328,711,5,774,556,791,903,547,783,645,934,990,165,133,128,718,160,920,282,797,396,68,744,627,207,569,168,39,564,873,584,758,731,686,662,806,727,854,260,726,503,243,484,291,147,379,803,866,939,108,917,341,998,766,417,158,641,559,200,415,130,267,595,449,400,554,233,416,999,452,688,262,299,491,670,700,847,388,656,754,562,984,347,177,398,988,318,84,989,487,534,197,274,19,462,782,542,841,106,429,845,631,537,560,420,385,69,428,75,327,647,833,205,552,640,899,689,622,88,340,546,574,334,820,649,790,682,166,691,863,72,60,456,773,263,529,679,204,190,714,209,174,843,896,112,121,653,11,541,578,42,348,801,959,955,628,707,494,468,258,443,589,463,357,475,375,156,675,540,221,634,844,29,316,344,971,823,91,953,732,822,850,781,646,77,672,384,916,199,918,217,870,967,602,513,232,319,244,878,9,733,617,21,315,796,254,736,433,49,101,163,676,321,730,910,769,981,813,219,930,943,886,590,970,485,517,980,76,312,364,290,663,842,522,605,889,974,457,962,948,461,961,616,735,659,740,355,253,818,703,363,945,897,322,142,629,295,561,93,739,876,135,356,269,880,493,167,669,359,717,490,832,300,141,802,942,997,390,343,423,502,568,952,414,837,799,17,986,67,337,82,925,483,451,830,124,191,661,600,674,532,729,913,829,40,252,872,620,784,225,149,32,651,382,186,27,719,937,533,926,543,95,51,867,48,155,785,94,83,630,7,911,520,453,13,45,667,162,439,255,567,138,107,601,373,923,712,657,313,697,473,153,885,875,182,358,89,742,46,374,573,960,360,603,922,593,868,501,137,827,80,585,807,79,134,418,583,431,26,73,762,530,476,261,195,30,705,115,377,652,87,566,264,12,189,715,472,994,535,169,775,606,572,821,293,41,725,24,100,192,173,187,849,146,738,548,425,296,281,441,455,694,97,386,50,395,143,884,610,553,465,702,110,126,611,619,745,549,329,446,65,741,795,856,339,368,810,780,912,412,861,132,170,324,898,805,764,62,372,625,237,6,317,421,510,393,220,183,212,753,609,505,136,858,563,3,828,1,536,935,798,877,919,292,117,288,256,599,958,231,969,941,904,210,249,479,690,98,692,514,932,852,978,467,333,838,615,786,660,239,330,404,749,788,214,376,28,208,624,882,92,908,787,710,193,592,668,834,570,644,268,976,576,391,25,527,586,176,222,223,70,434,633,664,57,598,332,728,47,444,265,211,839,402,724,894,283,471,525,250,16,915,466,202,760,891,666,826,251,746,410,277,800,759,888,565,161,924,613,284,175,180,720,516,750,56,902,245,230,895,31,380,840,96,196,881,474,752,229,387,506,550,755,521,371,671,477,865,698,78,351,545,734,181,684,216,148,273,722,512,929,765,353,259,496,127,119,809,129,123,460,140,285,326,815,963,665,677,638,648,678,767,874,397,835,378,61,519,831,459,848,304,438,38,407,206,950,778,816,555,706,236,855,909,612,440,144,637,812,723,178,968,575,737,654,949,857,370,581,447,308,122,579,55,996,409,323,683,271,639,215,701,771,582,2,588,763,571,509,120,794,906,240,526,871,419,266,846,658,71,890,905,159,655,681,424,286,557,394,892,369,499,218,10,335,311,636,480,185,4,979,508,777,511,975,18,8,489,544,22,151,614,538,454,936,234,642,349,946,276,587,900,325,171,257,248,310,331,498,887,164,621,977,342,577,458,172,118,914,20,817,401,779,194,346,756,430,102,713,422,275,927,524,591,436,486,747,751,411,859,814,539,957,307,306,294,345,406,685,227,864,811,34,74,851,907,226,44,618,643,90,488,964,445,179,298,448,716,954,793,515,947,492,450,748,435,287,35],"correct_response":"arrowright","correct":false,"block_index":0,"presentation_index":12,"clique_size":167,"graph_size":1000,"graphs_couple":["0048_N1000_K0167_NOCLIQUE","0029_N1000_K0167_CLIQUE"],"trial_type":"canvas-keyboard-response","trial_index":72,"time_elapsed":55720,"internal_node_id":"0.0-61.0-0.0-0.0"},{"rt":null,"stimulus":"audio_feedback/wrong/error01.mp3","response":null,"block_index":0,"presentation_index":12,"clique_size":167,"graph_size":1000,"graphs_couple":["0048_N1000_K0167_NOCLIQUE","0029_N1000_K0167_CLIQUE"],"trial_type":"audio-keyboard-response","trial_index":73,"time_elapsed":56703,"internal_node_id":"0.0-61.0-0.0-1.0"},{"rt":3,"response":"arrowleft","nodes_order":[110,1,453,948,872,557,587,728,692,725,420,269,65,132,133,351,78,270,666,139,332,828,736,631,487,867,675,877,794,916,938,973,301,559,777,160,836,688,919,594,456,141,316,971,92,564,199,997,904,431,575,962,748,528,468,958,884,922,545,11,48,771,276,719,527,169,891,667,651,403,281,409,734,501,463,95,605,366,645,77,147,765,969,673,435,945,233,633,718,693,10,743,931,168,80,889,516,112,926,699,247,432,424,686,251,570,455,652,336,414,272,832,386,398,430,753,856,31,700,853,442,642,849,130,33,206,36,140,514,780,475,323,67,425,627,860,691,800,200,462,195,488,55,209,897,24,154,732,650,923,32,428,991,226,602,810,413,117,234,981,114,120,679,622,87,90,294,460,754,109,538,710,339,661,310,86,245,987,822,469,747,625,392,282,417,75,47,785,932,256,411,621,283,617,496,744,400,874,267,402,381,818,796,956,685,45,914,979,349,12,895,869,896,665,167,362,776,829,656,378,626,531,573,357,773,505,533,213,670,265,823,581,604,687,382,66,40,924,138,817,866,745,814,22,905,81,899,863,906,261,285,861,820,974,941,791,939,766,296,372,834,920,384,590,246,307,258,839,292,716,61,41,166,447,481,479,558,118,240,113,940,917,795,17,591,343,768,91,58,737,370,799,196,893,371,284,902,229,965,950,875,290,451,787,369,930,840,613,549,405,982,436,547,898,585,304,176,146,764,519,539,697,257,742,330,158,100,990,518,792,582,886,653,35,597,995,511,473,663,350,556,342,678,761,835,465,521,347,485,493,255,553,165,580,227,671,151,804,934,606,16,600,561,494,659,478,145,806,489,477,643,322,988,85,107,615,887,365,499,236,603,803,871,197,681,224,601,968,865,416,808,689,181,198,722,944,638,513,412,947,831,790,554,302,228,188,317,218,723,994,781,778,99,529,676,239,222,470,390,546,46,854,821,374,333,989,44,506,480,819,393,910,801,752,448,215,388,360,194,769,383,149,163,50,329,7,287,696,191,815,630,69,262,852,51,929,706,219,543,483,536,813,798,13,949,870,171,373,592,593,907,328,313,750,620,703,612,825,344,876,646,609,512,683,614,788,647,192,599,911,841,122,862,749,419,739,449,933,410,522,34,266,510,214,596,892,407,598,565,726,94,217,348,437,387,309,624,119,534,202,72,868,859,2,164,183,486,674,900,610,207,23,243,326,142,124,705,842,38,807,74,102,6,740,805,42,64,18,741,797,274,26,121,811,992,563,127,173,520,846,101,56,953,37,879,491,759,238,319,497,640,318,961,29,809,208,611,134,93,658,401,903,249,452,793,912,669,8,355,946,9,984,105,76,352,873,537,729,668,763,156,389,337,190,458,588,960,242,662,985,826,629,476,993,427,300,289,380,517,951,774,440,305,830,996,525,767,772,712,212,312,250,439,789,367,657,684,972,441,844,824,325,129,977,544,21,161,340,502,654,395,131,467,293,928,616,524,786,98,935,878,263,268,908,104,569,589,106,595,474,128,193,943,379,959,175,273,123,464,303,248,980,713,298,71,720,434,542,143,136,358,185,280,555,847,30,426,457,28,279,677,108,254,385,116,508,649,423,963,755,541,881,466,632,443,68,25,189,482,775,231,695,241,730,779,223,827,576,295,532,210,848,504,429,59,641,331,523,579,890,857,211,966,619,816,526,216,758,648,551,530,363,978,83,618,396,495,62,635,838,568,260,338,324,43,880,607,15,913,252,957,345,174,89,548,54,731,918,751,159,111,391,925,986,49,137,942,639,225,5,500,783,399,264,970,724,802,415,757,277,306,153,88,637,84,782,672,702,535,63,503,885,126,79,445,103,843,909,204,850,39,498,915,201,454,833,291,170,53,727,364,320,422,888,278,584,845,698,148,203,507,52,572,356,964,894,335,955,57,186,297,921,144,96,187,314,936,275,882,655,552,299,14,376,837,707,182,308,461,694,418,746,397,450,770,446,883,492,664,259,97,354,315,583,578,711,574,721,27,586,205,660,812,975,221,235,73,438,237,244,954,408,760,967,717,709,735,484,125,634,377,540,999,368,690,135,937,444,858,784,855,715,704,577,179,756,733,976,0,608,680,311,334,288,271,20,509,19,762,184,636,180,404,998,567,150,550,70,353,952,490,177,406,708,253,230,346,155,623,115,738,515,157,566,644,851,394,433,471,232,172,421,714,60,864,82,220,375,162,701,901,628,152,562,321,359,472,682,983,361,178,341,459,3,560,286,927,571,327,4],"correct_response":"arrowleft","correct":true,"block_index":0,"presentation_index":13,"clique_size":167,"graph_size":1000,"graphs_couple":["0072_N1000_K0167_CLIQUE","0028_N1000_K0167_NOCLIQUE"],"trial_type":"canvas-keyboard-response","trial_index":74,"time_elapsed":57634,"internal_node_id":"0.0-62.0-0.0-0.0"},{"rt":null,"stimulus":"audio_feedback/right/coin01.mp3","response":null,"block_index":0,"presentation_index":13,"clique_size":167,"graph_size":1000,"graphs_couple":["0072_N1000_K0167_CLIQUE","0028_N1000_K0167_NOCLIQUE"],"trial_type":"audio-keyboard-response","trial_index":75,"time_elapsed":58623,"internal_node_id":"0.0-62.0-0.0-1.0"},{"rt":611,"response":"arrowleft","nodes_order":[155,97,9,271,402,224,142,245,704,306,183,265,71,908,715,454,583,742,668,301,24,375,998,517,220,203,111,679,160,262,255,647,946,832,341,752,16,712,429,637,190,145,317,480,983,95,338,399,965,839,32,605,775,945,127,549,594,673,753,196,411,164,913,941,500,107,621,569,343,977,45,228,751,534,811,757,452,406,119,269,143,50,313,546,816,661,954,853,784,579,909,421,936,479,7,623,963,696,618,990,773,573,396,130,33,820,622,592,588,276,219,0,710,163,202,286,44,49,495,505,116,866,556,370,439,918,948,12,575,100,539,670,171,371,179,584,919,98,106,372,632,553,741,891,646,451,14,577,878,887,442,576,413,708,557,60,818,174,842,676,112,905,125,533,283,422,257,342,513,388,555,969,875,467,845,744,380,483,985,197,856,798,131,427,13,541,394,655,34,348,955,819,731,902,81,516,474,41,785,587,282,256,970,309,786,851,333,471,759,96,404,35,611,762,315,151,813,384,848,552,674,298,619,649,475,227,638,518,274,242,128,319,177,138,938,335,144,409,418,261,147,209,920,635,956,308,514,886,860,470,859,651,77,235,477,929,496,377,609,43,238,93,76,331,822,554,504,104,366,538,566,612,906,324,666,215,743,54,129,529,835,581,449,195,299,310,300,347,42,756,205,187,296,927,699,794,210,397,150,528,358,615,874,790,976,250,934,961,991,84,728,916,432,769,63,424,201,428,750,152,267,799,687,650,606,135,405,26,30,776,993,198,662,964,438,824,922,360,685,663,232,726,806,545,244,53,746,59,508,683,346,596,86,519,593,711,3,148,864,491,952,78,460,681,571,729,321,872,986,237,178,930,951,126,80,11,924,968,182,716,295,531,678,226,765,302,176,747,334,705,68,888,548,871,254,764,369,894,501,996,542,401,75,659,441,881,578,349,312,294,563,568,260,760,585,462,834,830,290,780,915,805,297,617,373,885,960,736,838,225,732,134,636,94,465,20,328,154,883,702,62,450,108,561,925,382,499,844,419,882,101,204,537,526,336,599,114,825,110,208,169,745,625,937,31,858,115,833,37,796,218,246,251,793,997,55,671,266,520,530,564,700,693,193,481,766,614,102,665,565,812,690,172,415,628,733,982,121,70,877,184,457,777,58,903,332,231,486,284,185,103,188,862,247,158,407,56,797,503,603,761,352,865,694,720,17,562,258,466,221,287,717,357,643,730,953,652,304,863,48,5,524,502,724,672,137,904,123,737,61,641,65,99,754,124,827,153,326,914,408,610,275,582,939,921,113,327,194,527,446,999,767,40,788,852,133,273,122,725,412,82,186,270,87,207,950,109,200,933,233,840,630,29,558,789,815,140,386,392,627,444,307,320,586,722,800,978,161,498,305,974,967,383,436,755,841,433,779,826,994,437,992,944,28,714,677,703,907,691,291,105,120,38,359,212,828,390,770,802,6,167,601,170,241,318,344,355,540,656,768,831,876,162,51,416,900,598,280,602,425,895,423,469,211,778,688,648,149,935,175,272,447,869,550,216,473,92,723,484,590,506,398,494,880,136,664,616,697,199,118,971,523,67,353,354,21,532,680,72,809,468,74,430,512,455,288,23,25,940,792,472,117,823,781,947,580,330,910,79,719,57,157,285,521,931,870,814,808,604,682,173,973,381,836,443,356,801,810,239,487,340,223,393,689,478,979,758,854,645,252,485,39,240,181,707,620,379,988,400,846,783,772,281,448,855,567,453,362,132,52,829,713,675,821,873,264,378,69,222,434,624,27,488,807,631,669,774,435,507,890,787,311,898,850,492,337,535,365,253,364,771,361,547,962,525,510,591,843,2,600,896,234,570,166,795,277,975,748,791,493,243,19,857,613,589,923,325,740,268,230,515,692,942,420,536,146,259,958,464,36,667,511,926,482,709,640,763,263,803,387,943,323,159,522,639,236,995,642,289,91,214,966,817,476,739,440,350,984,738,868,385,987,389,363,141,543,837,18,959,367,431,426,463,892,626,957,316,345,560,374,804,949,456,879,917,391,911,686,10,417,559,607,303,658,490,180,322,293,544,1,249,414,229,735,698,901,189,248,368,191,899,410,932,329,867,595,912,727,749,90,574,551,66,980,88,314,461,706,206,89,509,73,989,718,445,608,782,279,972,734,47,292,889,633,339,572,861,403,395,657,8,884,497,721,459,4,22,634,660,278,897,46,217,653,849,695,701,847,192,376,458,139,85,213,156,684,489,15,654,64,168,351,597,83,644,981,893,629,928,165],"correct_response":"arrowleft","correct":true,"block_index":0,"presentation_index":14,"clique_size":150,"graph_size":1000,"graphs_couple":["0012_N1000_K0150_CLIQUE","0096_N1000_K0150_NOCLIQUE"],"trial_type":"canvas-keyboard-response","trial_index":76,"time_elapsed":60151,"internal_node_id":"0.0-63.0-0.0-0.0"},{"rt":null,"stimulus":"audio_feedback/right/coin01.mp3","response":null,"block_index":0,"presentation_index":14,"clique_size":150,"graph_size":1000,"graphs_couple":["0012_N1000_K0150_CLIQUE","0096_N1000_K0150_NOCLIQUE"],"trial_type":"audio-keyboard-response","trial_index":77,"time_elapsed":61143,"internal_node_id":"0.0-63.0-0.0-1.0"},{"rt":5,"response":"arrowleft","nodes_order":[641,521,594,766,219,336,610,370,386,528,85,838,353,342,974,925,443,331,351,754,124,272,187,91,580,387,914,962,174,420,520,597,110,172,950,895,625,458,539,20,377,296,463,53,723,959,103,928,44,468,981,896,549,315,83,795,404,144,806,715,120,81,593,21,811,96,804,446,279,378,679,784,289,145,855,280,37,902,759,916,206,993,270,148,213,326,367,570,700,39,441,631,702,733,788,99,949,978,782,722,787,668,912,75,714,852,753,22,185,774,853,894,478,678,552,545,583,840,709,493,306,626,105,888,450,642,743,432,901,275,831,756,210,858,926,946,238,725,558,592,460,671,530,662,587,861,324,927,479,338,616,225,193,835,406,880,410,282,481,966,495,860,612,364,455,188,792,991,483,809,730,948,140,639,195,40,169,790,541,409,122,152,224,832,38,968,717,79,486,339,260,620,684,485,68,617,958,255,690,676,906,547,670,839,349,59,320,885,665,235,447,74,772,769,60,527,862,696,54,451,312,748,941,212,413,737,666,622,261,502,933,361,452,518,402,66,454,971,989,181,294,656,747,186,546,708,196,147,10,647,803,379,390,442,980,513,194,815,401,55,705,354,604,519,568,899,77,965,52,462,62,18,757,434,830,248,25,891,467,693,805,222,100,184,470,920,986,988,598,106,682,226,532,810,691,93,168,724,554,429,522,47,95,109,526,480,146,114,934,628,12,257,438,964,345,198,231,461,16,985,476,515,119,836,731,343,997,207,887,917,307,348,844,403,550,744,465,812,704,308,506,619,602,627,534,889,879,88,721,689,967,223,499,575,179,230,426,629,63,752,430,694,813,9,780,92,399,876,818,553,267,448,445,156,918,26,540,727,922,346,699,957,395,825,215,396,165,417,608,584,596,288,134,371,711,474,203,229,167,886,698,405,663,736,239,868,284,56,82,761,67,359,998,283,661,164,607,69,84,278,786,419,125,571,344,472,701,150,798,729,551,650,822,397,61,845,358,648,667,878,127,618,929,135,252,274,807,765,866,768,7,357,821,365,175,2,160,449,856,436,509,745,794,139,335,591,951,113,285,657,30,171,104,32,800,977,947,785,425,246,13,487,560,3,697,108,162,742,418,871,189,973,533,250,173,264,491,751,881,290,78,600,435,33,983,911,975,337,221,828,276,992,137,57,870,990,529,287,623,176,309,153,931,72,867,437,227,713,524,305,660,609,734,234,859,466,841,615,585,453,484,994,511,850,712,347,984,233,97,664,376,939,208,851,688,758,531,362,80,115,829,50,372,710,773,236,582,915,256,900,383,910,760,883,496,302,559,574,573,411,355,334,384,595,935,232,777,500,29,877,177,996,217,921,368,826,508,588,341,321,903,564,882,603,292,952,299,816,269,865,624,632,214,316,330,779,498,576,945,972,46,630,680,893,244,995,262,898,263,204,190,824,863,293,218,136,497,200,133,669,770,778,258,654,864,955,428,220,43,746,569,118,363,4,286,749,590,159,477,385,897,391,64,707,421,726,567,439,556,767,681,247,919,268,389,643,489,71,143,716,151,732,241,890,35,793,523,329,319,414,586,356,304,191,161,848,407,516,982,874,979,98,318,943,416,820,36,741,645,488,111,692,281,695,45,265,636,913,6,775,157,273,718,492,561,884,944,94,494,440,677,328,277,572,381,360,687,48,90,771,783,542,823,350,28,86,685,58,849,242,613,14,703,444,380,514,930,373,70,209,611,301,34,388,548,266,128,163,131,228,875,433,253,322,333,422,130,869,976,740,199,180,847,394,473,674,101,27,655,11,291,728,254,216,89,123,475,601,791,808,352,653,469,942,340,960,537,295,393,5,755,249,49,544,112,640,31,17,706,908,789,197,535,953,819,76,652,637,504,735,781,51,854,932,117,634,517,412,512,503,892,827,138,65,589,683,799,178,525,325,776,578,170,251,796,719,182,126,635,834,374,464,797,149,817,505,904,738,833,154,577,923,15,323,192,300,579,563,963,924,0,543,954,490,8,646,536,314,183,659,415,121,857,565,482,538,581,762,940,872,41,24,566,843,243,369,400,303,970,961,211,116,132,382,1,158,842,332,969,987,431,907,846,651,562,739,937,555,240,763,621,129,471,19,166,557,686,259,909,905,366,837,201,938,245,141,42,142,327,873,644,271,73,605,999,155,424,317,802,237,427,814,459,23,720,202,87,298,606,507,658,638,801,408,956,392,375,673,649,313,107,311,510,456,675,102,205,633,457,599,614,310,297,764,936,423,501,750,672,398],"correct_response":"arrowright","correct":false,"block_index":0,"presentation_index":15,"clique_size":150,"graph_size":1000,"graphs_couple":["0053_N1000_K0150_NOCLIQUE","0069_N1000_K0150_CLIQUE"],"trial_type":"canvas-keyboard-response","trial_index":78,"time_elapsed":62077,"internal_node_id":"0.0-64.0-0.0-0.0"},{"rt":null,"stimulus":"audio_feedback/wrong/error01.mp3","response":null,"block_index":0,"presentation_index":15,"clique_size":150,"graph_size":1000,"graphs_couple":["0053_N1000_K0150_NOCLIQUE","0069_N1000_K0150_CLIQUE"],"trial_type":"audio-keyboard-response","trial_index":79,"time_elapsed":63063,"internal_node_id":"0.0-64.0-0.0-1.0"},{"rt":944,"response":"arrowleft","nodes_order":[198,796,821,898,536,51,362,223,237,156,813,848,43,336,407,663,91,780,566,806,177,15,304,148,330,153,626,921,792,52,346,556,826,882,630,3,349,445,531,598,893,979,713,501,674,391,634,26,946,756,236,664,636,340,956,981,473,215,577,31,294,101,381,624,832,947,770,416,974,495,83,241,231,157,256,562,994,124,359,16,655,281,505,185,62,873,781,915,692,680,985,841,204,811,665,802,9,712,383,984,865,187,303,460,945,357,239,880,972,502,33,252,493,122,569,253,78,702,286,490,68,850,376,996,668,418,190,885,375,429,992,988,104,905,245,629,0,975,308,403,192,66,586,167,105,65,486,454,710,46,295,725,989,870,119,504,900,285,45,717,944,155,475,614,221,852,211,455,191,145,527,489,136,426,514,559,567,661,612,874,323,306,186,111,859,355,610,678,739,270,628,964,971,97,485,477,758,353,214,957,368,443,128,491,886,950,444,788,585,385,432,777,188,528,123,448,673,973,753,266,333,948,358,662,551,653,112,742,955,468,345,783,547,347,682,639,406,413,282,170,695,916,752,683,408,109,581,87,318,797,89,365,568,478,823,361,922,704,833,722,611,250,583,7,705,776,910,508,305,729,876,700,659,351,685,367,25,840,798,58,95,217,998,106,487,29,935,140,699,588,206,512,209,530,698,718,607,790,930,844,503,498,37,660,115,121,139,402,293,881,263,395,687,741,658,227,499,927,666,492,258,36,714,180,54,620,240,731,59,434,912,410,637,760,465,430,246,181,889,222,557,936,934,851,595,647,377,280,834,328,520,997,970,179,745,938,49,113,212,325,438,219,401,814,897,719,711,575,819,902,829,592,50,71,24,85,226,390,414,195,197,795,917,229,521,138,267,564,793,464,1,183,617,901,807,853,63,126,553,999,576,216,442,14,238,319,563,879,545,172,908,210,641,260,570,887,369,849,672,28,271,519,640,855,860,287,546,969,940,243,892,862,182,103,507,120,597,72,421,21,310,600,184,350,518,447,608,735,951,767,150,372,604,923,601,525,484,537,749,420,888,94,773,132,929,728,542,764,158,529,397,296,379,513,596,618,779,824,721,693,516,854,593,203,815,554,194,409,787,856,706,561,125,257,786,200,644,953,800,384,906,275,696,313,509,129,961,75,374,627,284,622,868,919,388,312,619,771,199,178,233,584,762,960,928,926,371,805,847,449,427,74,642,907,904,453,466,838,778,684,754,775,213,193,716,866,354,107,736,727,142,218,32,667,651,196,825,494,803,338,77,515,324,311,941,914,864,225,686,965,92,863,791,589,143,404,40,861,474,242,768,456,937,818,205,565,23,843,67,801,220,261,723,248,724,605,772,251,746,315,918,703,452,400,320,154,380,435,615,831,326,48,264,983,541,986,845,890,842,17,784,939,433,616,995,959,967,652,228,730,392,163,924,419,654,265,168,931,469,740,925,297,867,458,41,631,774,30,348,55,782,980,130,277,423,671,543,737,69,364,166,625,389,977,288,635,363,316,405,207,709,201,572,79,799,591,339,943,903,679,606,643,609,462,535,835,341,309,743,412,274,276,987,871,506,579,496,20,623,877,759,147,131,386,633,540,748,279,573,733,100,548,439,331,463,299,769,810,991,993,457,732,53,337,480,34,255,932,734,398,81,470,517,108,169,302,117,590,765,289,90,39,232,497,966,751,817,76,816,558,872,436,785,560,146,88,300,268,670,708,681,694,301,441,234,857,482,82,152,165,599,761,578,161,526,118,446,534,899,35,896,715,93,38,373,307,804,757,64,70,208,645,550,230,701,467,298,646,202,387,461,621,47,42,10,580,224,22,27,895,283,689,488,110,549,822,954,176,290,942,57,451,552,707,160,523,481,162,342,366,12,539,19,269,827,920,476,396,911,173,690,4,744,808,538,60,291,322,571,317,344,56,137,422,594,144,471,858,329,2,720,697,360,431,292,235,555,370,428,114,532,875,933,949,84,259,952,134,913,159,688,846,894,878,393,314,417,133,963,750,6,836,649,171,262,278,587,510,440,254,425,603,524,976,891,837,244,602,394,544,13,656,247,127,828,378,794,830,61,8,632,80,424,978,747,18,483,472,755,657,968,738,99,356,164,450,839,151,883,321,574,189,789,675,479,174,86,884,676,411,98,650,335,399,175,582,73,990,691,272,11,96,766,273,352,5,982,141,522,812,677,382,958,437,249,500,869,669,44,511,135,613,648,332,638,334,763,343,820,809,327,909,149,726,102,962,415,459,533,116],"correct_response":"arrowright","correct":false,"block_index":0,"presentation_index":16,"clique_size":133,"graph_size":1000,"graphs_couple":["0045_N1000_K0133_NOCLIQUE","0075_N1000_K0133_CLIQUE"],"trial_type":"canvas-keyboard-response","trial_index":80,"time_elapsed":64929,"internal_node_id":"0.0-65.0-0.0-0.0"},{"rt":null,"stimulus":"audio_feedback/wrong/error01.mp3","response":null,"block_index":0,"presentation_index":16,"clique_size":133,"graph_size":1000,"graphs_couple":["0045_N1000_K0133_NOCLIQUE","0075_N1000_K0133_CLIQUE"],"trial_type":"audio-keyboard-response","trial_index":81,"time_elapsed":65923,"internal_node_id":"0.0-65.0-0.0-1.0"},{"rt":98,"response":"arrowleft","nodes_order":[987,410,956,884,979,63,867,725,234,107,437,821,334,738,731,893,965,156,478,995,562,197,998,691,151,14,945,674,939,193,498,955,958,97,211,12,352,601,946,395,826,181,905,40,817,728,683,258,13,212,578,918,82,623,125,556,902,770,113,711,775,721,583,299,356,812,653,504,954,730,620,590,671,614,325,989,647,302,587,520,752,859,30,642,572,115,760,283,950,340,803,388,686,849,759,225,881,335,605,985,797,266,301,907,897,150,554,131,28,914,570,585,26,50,616,292,376,392,338,886,365,898,357,3,595,727,598,852,645,433,957,532,591,226,5,883,239,373,469,74,892,986,729,531,260,924,445,446,397,361,783,600,460,73,640,734,317,882,238,805,761,91,64,491,370,682,606,870,424,139,860,513,62,459,670,917,969,15,972,54,274,142,427,516,837,378,294,94,6,183,273,358,847,279,492,191,825,694,75,875,894,449,309,833,270,636,295,253,79,382,171,543,577,21,1,323,963,853,367,41,741,518,55,425,588,615,815,695,391,509,42,58,643,56,937,372,475,878,785,714,88,850,172,394,11,663,980,297,879,635,922,472,412,756,667,77,949,157,715,430,104,525,289,344,519,457,169,720,428,688,92,654,524,750,331,482,432,767,490,242,930,863,80,170,553,173,389,575,594,964,22,147,744,573,441,363,890,549,865,122,889,44,900,782,210,816,72,324,696,571,59,423,689,477,830,534,231,844,117,318,416,971,377,347,959,149,185,316,218,66,336,186,454,315,799,439,264,47,983,974,0,353,527,864,7,38,483,339,243,374,999,940,680,81,762,448,349,789,189,267,631,684,468,801,723,417,973,916,436,681,398,948,926,222,794,990,78,413,831,219,786,925,530,9,33,854,67,293,216,811,545,936,913,346,835,137,880,456,792,493,230,198,328,927,660,541,409,98,536,421,25,589,521,796,555,699,802,402,330,51,753,263,175,996,908,136,240,420,105,851,505,787,103,563,241,461,204,548,568,561,857,467,118,246,83,109,187,411,622,976,160,205,426,904,896,565,733,657,813,178,203,290,637,651,665,440,774,611,262,780,480,196,765,776,676,228,110,934,664,362,254,701,233,920,540,624,195,845,163,164,687,188,522,619,60,807,703,383,839,764,337,506,952,320,576,566,747,123,495,580,407,20,369,17,593,129,517,559,779,599,746,512,632,967,716,354,280,790,100,499,868,463,814,452,978,298,724,542,368,873,649,514,184,85,809,501,119,832,991,713,861,602,558,134,221,710,646,977,95,269,751,223,438,824,932,962,968,24,992,455,528,429,523,768,675,278,538,332,579,135,224,250,415,18,843,23,737,510,793,314,745,422,227,39,581,304,546,535,655,458,128,717,617,788,919,213,192,403,121,872,114,596,341,366,778,408,235,284,130,350,404,69,533,808,749,322,158,140,465,182,282,99,862,49,2,484,885,141,406,310,769,161,401,208,497,628,485,52,19,133,742,910,638,112,384,582,981,174,903,364,333,153,343,685,375,214,736,201,10,405,57,550,237,162,866,143,16,190,89,207,933,126,757,48,371,486,466,494,70,326,975,693,784,673,613,838,823,45,719,453,306,840,921,679,603,659,148,451,220,677,607,286,387,604,508,177,726,773,46,627,101,281,53,36,834,608,308,319,820,982,4,232,35,544,268,84,707,942,915,994,944,960,648,909,474,666,997,906,159,827,249,678,791,321,547,798,633,700,257,355,245,612,65,470,487,194,644,630,291,966,592,662,381,874,155,732,217,399,462,988,303,690,557,261,71,708,27,473,984,265,511,697,345,390,152,285,668,828,255,709,584,855,507,272,32,763,296,165,342,166,500,626,740,124,248,629,935,705,993,236,856,348,901,515,146,656,692,887,739,641,31,102,795,871,895,206,941,551,360,450,841,442,888,443,247,488,672,276,313,244,300,145,489,168,311,771,621,251,650,634,288,305,574,970,379,287,877,800,842,625,953,8,502,766,176,200,179,846,928,111,414,943,393,447,275,444,609,869,810,597,758,836,229,435,380,209,658,87,858,138,43,777,90,154,329,822,652,911,144,503,37,806,931,496,735,560,899,434,947,526,481,961,106,127,386,167,86,829,385,552,722,93,256,215,743,359,704,912,818,618,277,120,781,564,259,661,755,479,537,848,271,891,748,929,698,419,180,706,772,312,96,754,951,132,464,29,567,610,396,351,327,400,669,586,418,116,307,34,569,529,202,938,639,718,76,199,804,471,431,923,702,819,61,539,876,476,712,68,252,108],"correct_response":"arrowleft","correct":true,"block_index":0,"presentation_index":17,"clique_size":133,"graph_size":1000,"graphs_couple":["0071_N1000_K0133_CLIQUE","0031_N1000_K0133_NOCLIQUE"],"trial_type":"canvas-keyboard-response","trial_index":82,"time_elapsed":66870,"internal_node_id":"0.0-66.0-0.0-0.0"},{"rt":null,"stimulus":"audio_feedback/right/coin01.mp3","response":null,"block_index":0,"presentation_index":17,"clique_size":133,"graph_size":1000,"graphs_couple":["0071_N1000_K0133_CLIQUE","0031_N1000_K0133_NOCLIQUE"],"trial_type":"audio-keyboard-response","trial_index":83,"time_elapsed":67863,"internal_node_id":"0.0-66.0-0.0-1.0"},{"rt":629,"response":"arrowleft","nodes_order":[39,848,798,748,739,696,643,606,925,300,174,263,365,226,275,156,379,101,467,63,629,74,507,638,566,224,612,559,505,5,419,48,181,565,285,788,593,434,120,893,7,59,885,75,807,992,279,508,699,531,815,678,82,396,145,326,457,331,626,50,387,218,284,585,442,682,718,138,648,916,882,234,404,963,357,393,541,178,89,667,225,672,325,760,604,292,500,301,717,569,827,784,269,794,323,441,547,495,833,229,903,364,989,808,309,422,420,305,759,681,384,901,44,166,965,453,436,660,712,124,589,359,900,856,526,238,514,330,53,360,951,736,430,297,840,875,908,479,732,790,687,880,733,704,494,746,395,914,34,627,686,543,826,239,744,659,995,102,930,366,342,577,257,125,683,974,706,789,369,98,255,698,72,311,952,520,173,77,964,765,249,372,898,96,622,217,413,42,308,865,480,458,100,221,796,13,637,592,491,920,652,105,272,689,553,894,692,95,763,270,633,853,464,192,162,576,346,289,315,758,135,10,949,139,103,177,327,642,950,562,722,991,80,299,349,329,632,825,117,953,116,134,184,333,820,695,775,460,282,582,896,614,715,84,971,516,304,54,169,941,677,191,3,740,27,664,837,332,990,354,76,924,450,417,67,57,250,241,126,352,597,201,787,428,832,375,838,605,755,888,511,588,310,673,929,261,168,214,550,656,216,506,650,860,738,911,839,223,721,917,62,423,449,600,336,542,443,485,831,737,636,286,966,942,481,649,814,324,910,114,409,708,475,227,38,25,30,373,751,245,51,253,558,548,584,980,358,661,90,657,872,915,671,570,283,579,219,401,741,922,87,546,617,777,761,208,919,984,8,211,281,446,904,122,824,731,501,728,769,881,113,339,172,411,205,935,153,580,532,207,711,444,159,897,701,338,994,556,73,340,351,380,583,713,596,240,394,877,445,414,747,466,490,296,376,522,700,108,273,783,140,374,601,256,233,609,474,578,528,115,909,809,771,536,476,844,764,962,60,948,866,521,287,107,499,725,493,370,486,517,602,403,361,534,345,847,943,231,440,164,716,290,635,243,793,567,171,630,188,415,697,762,791,320,264,938,610,242,424,31,127,65,719,425,389,147,58,767,363,560,870,21,402,222,503,778,813,32,335,52,306,819,666,429,634,776,774,795,348,690,431,613,646,68,804,85,268,362,350,22,823,620,433,26,864,386,802,705,554,163,999,133,540,663,668,803,573,158,684,800,314,489,112,780,889,539,498,155,11,267,537,779,773,23,412,277,996,932,321,209,874,79,836,236,631,410,653,975,488,958,806,151,512,533,194,94,934,757,720,483,841,869,291,237,891,61,998,28,377,834,452,416,551,165,618,472,821,378,437,293,167,385,810,435,33,768,152,88,356,469,19,69,199,398,670,259,658,405,510,71,20,41,37,418,743,426,143,347,890,552,782,371,694,651,955,254,343,879,645,524,818,313,318,568,197,527,448,294,200,876,679,470,487,64,482,669,969,997,146,591,70,187,945,427,822,43,288,14,462,220,745,851,873,594,29,202,513,251,730,438,473,655,586,497,987,615,228,752,334,858,812,518,972,81,979,45,83,407,883,317,828,78,17,16,616,509,215,982,142,36,928,99,298,213,571,276,961,316,676,496,927,157,685,621,734,344,160,110,933,855,206,931,150,978,295,46,535,887,118,857,906,871,15,383,849,939,465,854,947,367,595,754,129,388,662,749,944,545,132,421,598,456,179,587,271,845,647,400,742,940,391,6,816,392,786,977,805,693,709,247,735,104,56,770,970,262,936,186,161,399,149,688,504,750,654,180,176,185,183,644,792,408,868,111,154,136,9,988,724,590,862,244,926,515,266,572,322,913,973,937,611,302,432,641,691,726,397,986,640,190,195,912,307,328,886,608,918,93,902,193,835,785,119,967,957,538,274,130,148,260,212,899,563,895,624,960,884,502,478,175,55,97,544,599,878,727,196,189,801,2,892,623,519,468,846,232,121,235,985,674,753,946,477,312,248,523,703,455,956,258,123,680,817,976,198,625,341,983,756,382,406,830,390,829,675,47,0,665,968,144,861,811,337,575,454,923,905,471,303,319,459,959,993,850,843,954,781,702,265,607,106,549,461,91,723,86,131,561,707,368,141,564,574,557,230,797,852,463,109,439,530,12,628,447,137,484,863,4,907,182,921,24,799,492,246,128,210,18,639,619,766,170,729,867,525,40,278,710,859,49,35,1,714,66,529,842,451,355,981,280,772,353,603,381,92,203,581,204,252,555],"correct_response":"arrowleft","correct":true,"block_index":0,"presentation_index":18,"clique_size":117,"graph_size":1000,"graphs_couple":["0037_N1000_K0117_CLIQUE","0077_N1000_K0117_NOCLIQUE"],"trial_type":"canvas-keyboard-response","trial_index":84,"time_elapsed":69400,"internal_node_id":"0.0-67.0-0.0-0.0"},{"rt":null,"stimulus":"audio_feedback/right/coin01.mp3","response":null,"block_index":0,"presentation_index":18,"clique_size":117,"graph_size":1000,"graphs_couple":["0037_N1000_K0117_CLIQUE","0077_N1000_K0117_NOCLIQUE"],"trial_type":"audio-keyboard-response","trial_index":85,"time_elapsed":70403,"internal_node_id":"0.0-67.0-0.0-1.0"},{"rt":3,"response":"arrowleft","nodes_order":[335,706,207,82,83,675,869,851,39,29,9,857,556,321,560,879,977,709,997,30,916,380,86,272,248,400,58,264,924,164,779,384,906,893,878,233,444,294,78,931,481,932,831,74,803,178,476,344,488,559,790,795,794,575,639,174,638,295,650,697,620,953,252,143,772,213,397,27,614,696,312,32,664,665,889,52,682,359,304,929,914,0,408,858,435,232,394,659,322,460,471,654,793,490,482,258,814,748,43,383,870,254,492,132,926,491,336,755,760,964,182,574,360,77,430,370,738,610,591,155,390,872,262,347,103,571,855,28,542,787,710,820,628,156,467,209,201,915,112,776,270,800,805,663,24,123,483,8,421,353,442,308,159,458,761,767,983,789,547,990,975,642,181,423,766,958,913,66,114,206,555,969,150,554,