"success","timeout","failed_images","failed_audio","failed_video","trial_type","trial_index","time_elapsed","internal_node_id","view_history","rt","stimulus","response","nodes_order","correct_response","correct","block_index","presentation_index","clique_size","graph_size","graphs_couple"
"true","false","[]","[]","[]","preload","0","51","0.0-0.0","","","","","","","","","","","",""
"","","","","","instructions","1","2514","0.0-1.0","[{""page_index"":0,""viewing_time"":2321},{""page_index"":1,""viewing_time"":136}]","2458","","","","","","","","","",""
"true","false","[]","[]","[]","preload","2","2566","0.0-2.0","","","","","","","","","","","",""
"","","","","","instructions","3","9182","0.0-3.0","[{""page_index"":0,""viewing_time"":73},{""page_index"":1,""viewing_time"":168},{""page_index"":2,""viewing_time"":133},{""page_index"":3,""viewing_time"":140},{""page_index"":4,""viewing_time"":149},{""page_index"":5,""viewing_time"":155},{""page_index"":6,""viewing_time"":161},{""page_index"":7,""viewing_time"":131},{""page_index"":8,""viewing_time"":117},{""page_index"":9,""viewing_time"":133},{""page_index"":10,""viewing_time"":217},{""page_index"":11,""viewing_time"":107},{""page_index"":12,""viewing_time"":95},{""page_index"":13,""viewing_time"":188},{""page_index"":14,""viewing_time"":93},{""page_index"":15,""viewing_time"":98},{""page_index"":16,""viewing_time"":105},{""page_index"":17,""viewing_time"":116},{""page_index"":18,""viewing_time"":779},{""page_index"":19,""viewing_time"":127},{""page_index"":20,""viewing_time"":69},{""page_index"":21,""viewing_time"":99},{""page_index"":22,""viewing_time"":99},{""page_index"":23,""viewing_time"":91},{""page_index"":24,""viewing_time"":97},{""page_index"":25,""viewing_time"":99},{""page_index"":26,""viewing_time"":100},{""page_index"":27,""viewing_time"":110},{""page_index"":28,""viewing_time"":100},{""page_index"":29,""viewing_time"":100},{""page_index"":30,""viewing_time"":193},{""page_index"":31,""viewing_time"":120},{""page_index"":32,""viewing_time"":186},{""page_index"":33,""viewing_time"":120},{""page_index"":34,""viewing_time"":90},{""page_index"":35,""viewing_time"":106},{""page_index"":36,""viewing_time"":101},{""page_index"":37,""viewing_time"":96},{""page_index"":38,""viewing_time"":106},{""page_index"":39,""viewing_time"":95},{""page_index"":40,""viewing_time"":107},{""page_index"":41,""viewing_time"":79},{""page_index"":42,""viewing_time"":85},{""page_index"":43,""viewing_time"":107},{""page_index"":44,""viewing_time"":90},{""page_index"":45,""viewing_time"":94},{""page_index"":46,""viewing_time"":89},{""page_index"":47,""viewing_time"":102},{""page_index"":48,""viewing_time"":100},{""page_index"":49,""viewing_time"":98},{""page_index"":50,""viewing_time"":103},{""page_index"":51,""viewing_time"":105}]","6615","","","","","","","","","",""
"","","","","","instructions","4","10056","0.0-4.0","[{""page_index"":0,""viewing_time"":874}]","874","","","","","","","","","",""
"true","false","[]","[]","[]","preload","5","10086","0.0-5.0","","","","","","","","","","","",""
"","","","","","image-keyboard-response","6","10460","0.0-6.0","","373","tutorial/task_familiarization_images/part 1/01_N160_K90_cliqueRight_question1.PNG"," ","","","","","","","",""
"","","","","","image-keyboard-response","7","10597","0.0-7.0","","135","tutorial/task_familiarization_images/part 1/02_N160_K90_cliqueRight_question2.PNG"," ","","","","","","","",""
"","","","","","image-keyboard-response","8","10936","0.0-8.0","","338","tutorial/task_familiarization_images/part 1/03_N160_K90_cliqueRight_question3.PNG","arrowleft","","","","","","","",""
"","","","","","image-keyboard-response","9","11044","0.0-9.0","","106","tutorial/task_familiarization_images/part 1/04_N160_K90_cliqueRight_solution.PNG"," ","","","","","","","",""
"","","","","","image-keyboard-response","10","11217","0.0-10.0","","172","tutorial/task_familiarization_images/part 1/05_N160_K65_cliqueRight_question1.PNG"," ","","","","","","","",""
"","","","","","image-keyboard-response","11","11368","0.0-11.0","","150","tutorial/task_familiarization_images/part 1/06_N160_K65_cliqueRight_question2.PNG"," ","","","","","","","",""
"","","","","","image-keyboard-response","12","11490","0.0-12.0","","120","tutorial/task_familiarization_images/part 1/07_N160_K65_cliqueRight_question3.PNG","arrowleft","","","","","","","",""
"","","","","","image-keyboard-response","13","11579","0.0-13.0","","88","tutorial/task_familiarization_images/part 1/08_N160_K65_cliqueRight_solution.PNG"," ","","","","","","","",""
"","","","","","image-keyboard-response","14","11752","0.0-14.0","","171","tutorial/task_familiarization_images/part 1/09_N160_K50_cliqueLeft_question1.PNG"," ","","","","","","","",""
"","","","","","image-keyboard-response","15","11919","0.0-15.0","","166","tutorial/task_familiarization_images/part 1/10_N160_K50_cliqueLeft_question2.PNG"," ","","","","","","","",""
"","","","","","image-keyboard-response","16","12305","0.0-16.0","","385","tutorial/task_familiarization_images/part 1/11_N160_K50_cliqueLeft_question3.PNG","arrowleft","","","","","","","",""
"","","","","","image-keyboard-response","17","12529","0.0-17.0","","223","tutorial/task_familiarization_images/part 1/12_N160_K50_cliqueLeft_solution.PNG"," ","","","","","","","",""
"","","","","","image-keyboard-response","18","12692","0.0-18.0","","162","tutorial/task_familiarization_images/part 1/13_N160_K80_cliqueLeft_question1.PNG"," ","","","","","","","",""
"","","","","","image-keyboard-response","19","12862","0.0-19.0","","168","tutorial/task_familiarization_images/part 1/14_N160_K80_cliqueLeft_question2.PNG"," ","","","","","","","",""
"","","","","","image-keyboard-response","20","13043","0.0-20.0","","179","tutorial/task_familiarization_images/part 1/15_N160_K80_cliqueLeft_question3.PNG","arrowleft","","","","","","","",""
"","","","","","image-keyboard-response","21","13208","0.0-21.0","","163","tutorial/task_familiarization_images/part 1/16_N160_K80_cliqueLeft_solution.PNG"," ","","","","","","","",""
"","","","","","image-keyboard-response","22","13396","0.0-22.0","","188","tutorial/task_familiarization_images/part 1/17_N160_K40_cliqueRight_question1.PNG"," ","","","","","","","",""
"","","","","","image-keyboard-response","23","13604","0.0-23.0","","206","tutorial/task_familiarization_images/part 1/18_N160_K40_cliqueRight_question2.PNG"," ","","","","","","","",""
"","","","","","image-keyboard-response","24","13748","0.0-24.0","","143","tutorial/task_familiarization_images/part 1/19_N160_K40_cliqueRight_question3.PNG","arrowleft","","","","","","","",""
"","","","","","image-keyboard-response","25","13992","0.0-25.0","","243","tutorial/task_familiarization_images/part 1/20_N160_K40_cliqueRight_solution.PNG"," ","","","","","","","",""
"","","","","","image-keyboard-response","26","14237","0.0-26.0","","244","tutorial/task_familiarization_images/part 1/21_N160_K70_cliqueLeft_question1.PNG"," ","","","","","","","",""
"","","","","","image-keyboard-response","27","14454","0.0-27.0","","215","tutorial/task_familiarization_images/part 1/22_N160_K70_cliqueLeft_question2.PNG"," ","","","","","","","",""
"","","","","","image-keyboard-response","28","14511","0.0-28.0","","56","tutorial/task_familiarization_images/part 1/23_N160_K70_cliqueLeft_question3.PNG","arrowleft","","","","","","","",""
"","","","","","image-keyboard-response","29","14634","0.0-29.0","","122","tutorial/task_familiarization_images/part 1/24_N160_K70_cliqueLeft_solution.PNG"," ","","","","","","","",""
"true","false","[]","[]","[]","preload","30","14676","0.0-30.0","","","","","","","","","","","",""
"","","","","","image-keyboard-response","31","14841","0.0-31.0","","164","tutorial/task_familiarization_images/part 2/01_160_80_cliqueLeft_withFeedback_1.PNG"," ","","","","","","","",""
"","","","","","image-keyboard-response","32","15134","0.0-32.0","","292","tutorial/task_familiarization_images/part 2/02_160_80_cliqueLeft_withFeedback_1.PNG"," ","","","","","","","",""
"","","","","","image-keyboard-response","33","15172","0.0-33.0","","37","tutorial/task_familiarization_images/part 2/03_160_80_cliqueLeft_withFeedback_3.PNG","arrowleft","","","","","","","",""
"","","","","","image-keyboard-response","34","15323","0.0-34.0","","150","tutorial/task_familiarization_images/part 2/04_160_80_cliqueLeft_withFeedback_correct.PNG"," ","","","","","","","",""
"","","","","","image-keyboard-response","35","15720","0.0-35.0","","395","tutorial/task_familiarization_images/part 2/05_160_55_cliqueRight_withFeedback_1.PNG"," ","","","","","","","",""
"","","","","","image-keyboard-response","36","15952","0.0-36.0","","229","tutorial/task_familiarization_images/part 2/06_160_55_cliqueRight_withFeedback_2.PNG"," ","","","","","","","",""
"","","","","","image-keyboard-response","37","16073","0.0-37.0","","120","tutorial/task_familiarization_images/part 2/07_160_55_cliqueRight_withFeedback_3.PNG","arrowleft","","","","","","","",""
"","","","","","image-keyboard-response","38","16156","0.0-38.0","","82","tutorial/task_familiarization_images/part 2/08_160_55_cliqueRight_withFeedback_wrong.PNG"," ","","","","","","","",""
"","","","","","image-keyboard-response","39","16348","0.0-39.0","","191","tutorial/task_familiarization_images/part 2/09_160_70_cliqueLeft_withFeedback_1.PNG"," ","","","","","","","",""
"","","","","","image-keyboard-response","40","16532","0.0-40.0","","183","tutorial/task_familiarization_images/part 2/10_160_70_cliqueLeft_withFeedback_2.PNG"," ","","","","","","","",""
"","","","","","image-keyboard-response","41","16692","0.0-41.0","","158","tutorial/task_familiarization_images/part 2/11_160_70_cliqueLeft_withFeedback_3.PNG","arrowleft","","","","","","","",""
"","","","","","image-keyboard-response","42","16737","0.0-42.0","","44","tutorial/task_familiarization_images/part 2/12_160_70_cliqueLeft_withFeedback_correct.PNG"," ","","","","","","","",""
"true","false","[]","[]","[]","preload","43","16747","0.0-43.0","","","","","","","","","","","",""
"","","","","","instructions","44","17551","0.0-44.0","[{""page_index"":0,""viewing_time"":803}]","803","","","","","","","","","",""
"","","","","","survey-html-form","45","23147","0.0-45.0","","5594","","{""gender"":""transgender"",""age"":""34""}","","","","","","","",""
"","","","","","instructions","46","23596","0.0-46.0","[{""page_index"":0,""viewing_time"":448}]","448","","","","","","","","","",""
"true","","","","","fullscreen","47","26688","0.0-48.0","","","","","","","","","","","",""
"","","","","","canvas-keyboard-response","48","28435","0.0-49.0-0.0-0.0","","794","","arrowleft","[622,363,481,615,746,46,279,332,134,350,579,273,483,400,217,986,162,348,892,137,511,714,97,173,560,310,469,613,358,177,981,203,512,812,103,668,883,935,834,256,940,206,471,685,930,969,431,253,11,821,226,526,498,807,233,606,952,844,323,713,752,93,342,390,869,261,492,151,651,486,184,229,889,708,381,823,429,370,769,234,150,596,620,521,330,195,671,535,139,341,595,779,878,785,223,570,720,224,734,472,722,424,706,159,422,928,888,543,989,857,758,461,50,996,425,542,156,624,678,125,14,374,830,558,74,402,299,592,529,356,956,573,271,507,18,699,441,40,565,749,933,131,527,228,691,168,328,948,945,313,63,831,445,910,377,99,272,189,695,862,880,0,762,105,539,303,759,399,643,724,82,839,188,449,850,267,477,754,796,158,644,515,170,462,798,278,977,654,936,890,951,298,420,729,489,132,627,447,659,914,958,442,978,476,532,817,484,240,130,64,552,868,756,167,391,336,421,561,991,859,457,194,916,912,357,505,138,875,453,597,873,621,979,777,665,693,501,715,973,452,398,856,58,947,376,397,802,212,196,81,877,540,763,738,801,717,874,204,246,797,681,603,931,564,401,997,618,578,747,25,29,92,723,955,88,258,744,84,934,294,926,703,679,661,439,142,152,641,963,870,609,804,394,522,513,433,463,790,516,674,623,907,247,589,959,144,337,502,490,450,197,677,355,76,637,157,497,853,17,113,292,803,293,886,902,745,470,638,255,419,172,858,848,87,913,639,133,311,407,835,2,1,146,811,259,372,235,927,660,7,867,218,781,30,136,768,652,9,970,750,147,897,704,324,364,52,556,219,474,842,388,682,939,809,915,656,541,468,302,822,94,62,290,585,380,384,307,700,163,191,662,765,60,610,965,904,56,964,941,176,773,98,567,788,887,588,820,582,694,245,917,317,291,314,810,906,843,251,264,891,109,405,406,208,361,202,277,792,616,514,805,825,3,28,127,415,220,753,347,378,423,244,343,751,344,41,630,837,192,632,938,571,503,795,855,748,909,728,789,288,828,994,214,953,230,612,340,141,533,71,587,320,213,89,26,115,846,6,563,225,918,923,239,121,437,860,903,409,379,349,921,47,680,339,107,295,778,171,520,42,354,504,72,143,466,962,716,687,455,528,634,866,908,782,12,216,37,851,199,675,43,611,975,633,122,33,767,684,190,57,602,329,993,118,145,375,284,757,711,265,491,818,108,443,434,536,129,460,523,36,413,591,459,67,625,766,510,599,362,663,976,338,10,760,761,45,972,776,900,987,983,690,353,334,575,34,737,538,569,68,950,980,149,280,666,480,389,373,252,739,755,382,369,385,506,13,929,824,117,808,508,160,487,186,554,770,112,408,321,104,128,473,54,428,669,325,574,183,686,653,282,24,881,604,581,995,731,241,919,79,544,683,957,640,15,849,827,91,51,205,446,135,451,436,165,38,327,396,111,210,179,44,201,893,840,319,169,631,301,5,551,852,335,667,590,275,19,925,829,732,22,922,120,432,879,937,478,961,250,566,114,550,495,178,664,841,547,395,626,287,65,650,894,231,742,885,475,583,531,911,412,557,740,697,799,123,237,207,764,707,95,721,772,154,322,297,882,227,791,499,998,243,806,562,719,269,519,718,967,863,200,414,586,333,861,35,444,619,832,833,305,942,608,577,676,73,494,365,800,518,430,70,784,509,725,326,438,999,215,555,80,366,368,819,568,974,946,69,289,635,276,435,352,23,593,787,110,537,576,500,16,185,485,404,39,847,696,545,730,116,672,140,793,308,417,345,283,221,90,530,673,774,238,780,426,735,924,479,794,100,55,871,53,549,83,727,266,268,411,180,166,896,242,448,845,85,285,61,248,124,371,905,726,309,689,838,86,992,222,315,427,712,351,331,493,645,416,701,20,78,617,658,263,164,418,175,741,21,254,605,392,101,517,126,876,386,525,642,982,32,482,553,360,367,960,786,304,920,119,296,559,106,736,102,359,59,440,607,988,496,488,966,636,48,826,854,598,465,702,580,954,971,836,257,387,548,601,403,306,944,688,655,155,524,600,705,262,872,733,187,710,895,260,211,454,75,300,783,968,594,393,148,943,286,181,775,281,534,49,815,901,816,692,198,458,410,182,814,646,8,984,628,66,584,813,990,864,4,614,77,647,383,174,865,709,899,546,346,161,670,629,657,96,31,949,316,648,270,743,456,232,236,312,698,27,771,464,898,274,467,209,193,985,649,249,572,153,318,884,932]","arrowleft","true","0","0","300","1000","[""0003_N1000_K0300_CLIQUE"",""0040_N1000_K0300_NOCLIQUE""]"
"","","","","","audio-keyboard-response","49","29430","0.0-49.0-0.0-1.0","","null","audio_feedback/right/coin01.mp3","null","","","","0","0","300","1000","[""0003_N1000_K0300_CLIQUE"",""0040_N1000_K0300_NOCLIQUE""]"
"","","","","","canvas-keyboard-response","50","30164","0.0-50.0-0.0-0.0","","14","","arrowleft","[754,63,305,507,506,393,189,982,293,906,14,553,767,257,10,352,750,688,375,497,258,661,106,541,310,593,124,829,121,851,428,984,694,633,91,636,563,27,697,837,320,474,616,995,798,483,823,672,81,59,401,71,964,629,647,890,209,103,825,589,52,746,940,613,35,105,665,219,832,915,69,684,32,244,681,863,6,771,815,134,123,297,527,643,479,820,396,357,94,899,971,308,764,732,571,449,155,991,879,256,883,117,775,522,599,218,183,817,230,166,878,18,744,385,978,493,998,62,88,313,457,606,693,332,284,307,115,662,107,628,990,174,169,194,855,494,730,427,673,758,204,994,463,336,137,365,184,127,901,202,203,135,654,228,602,116,811,120,912,359,753,108,861,265,432,810,237,938,586,704,410,281,738,525,700,275,999,31,246,85,524,768,355,38,676,11,46,731,136,314,23,113,292,476,866,460,610,496,19,710,859,781,807,167,785,138,618,22,288,609,262,456,816,945,763,644,603,311,28,564,666,733,881,250,597,55,749,601,671,185,755,853,965,577,1,154,29,110,104,792,243,891,499,739,395,329,735,80,412,983,442,836,435,528,303,888,383,691,772,583,509,236,884,868,678,450,452,719,743,900,561,37,20,935,745,334,973,669,443,952,423,840,211,605,330,615,546,157,989,302,150,716,489,338,84,491,240,322,882,72,559,340,736,408,864,892,862,285,843,803,114,635,191,377,822,273,649,562,824,895,224,207,268,685,477,670,844,783,686,78,548,466,796,508,159,530,979,521,937,701,560,572,471,812,109,44,492,419,50,152,967,122,741,975,89,2,473,655,591,773,271,759,158,235,446,780,389,420,145,141,487,802,112,751,639,924,193,582,830,667,800,503,623,774,621,919,918,537,757,181,486,725,622,455,729,539,394,993,576,682,440,969,99,370,372,291,179,416,289,98,5,558,894,418,847,948,363,974,626,255,132,856,782,397,478,404,208,327,274,475,422,34,501,227,323,513,199,842,220,318,433,74,777,574,814,333,886,102,77,831,66,512,871,197,480,64,360,9,828,806,182,386,762,294,68,212,986,312,958,200,740,298,846,922,448,384,461,482,516,413,221,151,957,765,680,392,391,362,60,614,76,399,664,425,985,592,703,441,319,238,690,931,83,16,550,566,382,543,852,411,534,495,198,905,556,619,65,939,920,8,358,947,454,904,538,201,286,347,580,177,12,907,640,484,942,222,287,73,925,261,95,598,953,126,33,192,625,58,728,467,683,877,299,354,779,642,570,146,498,231,932,756,517,343,687,304,335,934,620,241,25,67,100,267,388,908,652,349,876,465,48,3,839,187,282,381,523,101,242,976,337,45,7,596,165,173,705,708,794,535,263,206,944,970,889,163,196,519,339,400,951,737,996,713,171,431,436,317,4,784,403,913,590,789,648,213,981,962,909,552,898,880,760,350,70,742,92,161,946,15,872,659,695,252,827,929,960,656,438,838,502,575,367,97,374,398,826,897,253,421,405,569,980,82,462,588,321,554,39,748,248,233,309,488,251,415,813,133,627,364,387,54,977,841,464,896,139,142,247,195,717,346,24,36,283,149,51,963,437,361,595,801,795,325,470,351,584,835,342,259,776,510,787,300,612,445,536,131,217,579,447,205,821,156,90,936,651,143,549,955,902,542,353,679,706,910,348,118,526,402,266,215,229,769,239,234,608,390,869,518,867,426,723,617,766,424,850,277,226,366,331,873,341,793,111,47,162,961,324,624,797,573,721,849,565,379,472,429,17,752,715,788,734,650,689,180,164,949,176,921,140,439,987,761,699,481,805,857,75,557,532,887,210,0,295,279,315,786,269,61,722,125,417,128,645,923,711,885,373,356,641,485,514,42,631,430,903,232,500,587,833,371,997,809,409,724,692,581,96,634,272,406,57,696,819,270,770,718,41,434,43,818,959,611,175,545,551,160,130,326,186,249,147,804,531,992,490,529,567,190,453,93,368,40,13,376,630,290,674,223,604,658,328,129,927,848,632,933,49,875,214,943,144,663,712,369,178,911,444,972,675,653,540,860,30,594,306,600,845,778,808,188,607,216,660,709,917,547,345,459,414,854,301,505,646,276,555,914,278,954,702,316,956,707,834,720,407,153,451,941,747,568,296,714,950,53,245,511,468,657,168,79,727,926,148,469,677,344,280,254,260,668,726,170,21,968,225,791,638,172,119,544,928,87,790,870,858,585,380,698,578,504,520,893,264,458,966,874,86,515,930,916,865,637,26,533,988,378,56,799]","arrowright","false","0","1","300","1000","[""0025_N1000_K0300_NOCLIQUE"",""0047_N1000_K0300_CLIQUE""]"
"","","","","","audio-keyboard-response","51","31171","0.0-50.0-0.0-1.0","","null","audio_feedback/wrong/error01.mp3","null","","","","0","1","300","1000","[""0025_N1000_K0300_NOCLIQUE"",""0047_N1000_K0300_CLIQUE""]"
"","","","","","canvas-keyboard-response","52","32123","0.0-51.0-0.0-0.0","","96","","arrowleft","[235,514,203,885,620,382,290,910,173,605,508,786,829,727,677,185,957,457,803,541,418,958,209,771,841,27,571,761,578,389,978,659,435,602,144,408,705,725,636,357,694,520,495,59,619,609,716,652,826,491,542,306,519,549,117,682,272,186,998,905,471,2,249,335,753,595,559,688,413,783,804,744,852,166,24,279,768,921,522,65,228,147,82,654,349,821,624,323,482,268,62,947,854,562,344,293,545,52,146,726,631,449,618,815,485,369,994,686,658,724,767,788,782,723,914,794,772,400,661,264,76,25,21,102,660,477,255,309,152,75,455,111,590,504,966,14,350,809,750,616,379,38,393,470,806,343,93,250,256,581,315,640,118,699,787,286,871,929,201,296,211,924,610,169,163,683,222,392,183,308,114,701,762,572,940,560,919,535,373,781,131,421,22,159,736,432,458,865,15,140,864,40,956,550,445,526,205,538,837,992,351,236,377,278,301,3,334,399,811,531,996,638,451,164,156,221,671,444,187,372,364,926,692,564,968,734,480,346,934,483,103,795,189,969,856,588,589,153,36,827,942,466,179,715,506,870,319,790,352,877,243,503,314,414,517,217,930,532,219,828,109,886,412,758,835,635,215,842,476,650,663,897,615,689,242,154,223,728,558,641,233,524,305,800,932,967,380,267,580,656,985,988,17,513,839,98,316,33,512,760,669,47,872,770,882,754,190,246,751,986,948,35,91,552,851,95,115,714,330,644,655,294,139,775,679,172,939,441,165,148,813,394,467,879,194,41,245,370,674,332,460,874,333,822,900,415,464,468,993,979,18,955,437,386,469,486,406,928,340,540,281,192,630,200,241,563,889,667,843,941,68,763,284,299,381,807,407,680,741,778,283,313,212,690,239,64,681,402,918,481,490,642,383,397,831,927,96,338,706,345,862,561,594,646,229,119,678,51,433,231,802,975,487,884,953,206,395,170,533,818,881,732,177,745,224,151,747,657,237,755,320,266,238,366,376,860,141,20,378,326,539,507,703,607,368,917,274,234,596,422,626,113,450,71,774,23,857,396,285,712,697,28,210,952,479,288,472,894,859,887,34,453,107,391,336,695,226,431,488,568,16,87,849,447,195,63,707,501,9,983,218,737,557,584,792,733,876,586,912,601,977,936,721,196,847,321,270,869,300,252,981,749,358,489,505,579,776,214,687,765,805,801,129,846,944,528,337,317,500,735,825,265,282,543,729,39,606,530,713,37,388,116,830,176,544,365,498,973,785,565,632,920,462,668,903,202,878,271,608,509,427,868,954,907,311,592,518,536,387,970,207,603,175,100,709,339,253,892,31,598,493,434,873,997,880,569,454,304,902,963,819,404,840,984,756,446,275,537,746,693,739,178,748,4,10,960,832,989,227,81,711,600,838,908,510,401,972,49,78,649,791,808,799,933,142,740,473,836,273,324,817,29,85,492,424,318,647,440,628,405,789,529,363,180,777,191,499,26,915,73,371,570,702,901,965,50,101,573,168,0,980,611,280,88,959,850,417,150,43,354,230,137,448,764,143,475,945,171,742,845,834,204,67,987,251,19,521,430,443,133,287,353,302,904,120,390,643,523,708,899,240,442,30,672,720,553,814,385,943,83,676,247,329,232,797,931,990,515,79,106,60,577,312,108,277,823,128,149,167,779,685,331,54,291,722,208,875,599,77,833,327,766,738,769,409,155,780,964,898,436,604,759,597,974,375,971,297,937,92,547,691,567,938,307,44,259,359,138,816,935,916,612,587,925,812,949,13,861,883,844,162,950,551,527,262,585,909,53,698,57,263,220,896,257,181,866,46,347,199,627,784,511,922,593,325,474,502,341,423,891,494,1,90,848,863,648,717,289,58,419,123,55,629,193,696,145,86,66,130,796,126,374,773,348,623,132,328,718,174,617,946,439,497,906,534,248,122,982,743,575,867,757,124,61,525,45,639,420,961,276,261,719,465,6,125,110,574,298,576,160,72,97,651,12,303,675,548,893,645,134,403,384,582,793,665,8,438,184,556,798,11,452,428,621,633,496,853,625,566,216,700,157,32,516,322,895,362,463,622,355,161,995,913,74,260,710,425,962,158,136,310,664,94,583,410,673,810,42,752,426,89,991,244,951,911,704,360,254,105,84,820,730,361,269,188,99,213,104,456,197,112,923,70,56,80,666,653,48,824,295,258,416,367,591,342,398,999,484,356,225,69,554,858,731,121,182,5,429,292,613,976,888,662,198,7,555,459,478,135,634,855,684,411,614,637,461,890,546,127,670]","arrowleft","true","0","2","267","1000","[""0046_N1000_K0267_CLIQUE"",""0043_N1000_K0267_NOCLIQUE""]"
"","","","","","audio-keyboard-response","53","33110","0.0-51.0-0.0-1.0","","null","audio_feedback/right/coin01.mp3","null","","","","0","2","267","1000","[""0046_N1000_K0267_CLIQUE"",""0043_N1000_K0267_NOCLIQUE""]"
"","","","","","canvas-keyboard-response","54","34069","0.0-52.0-0.0-0.0","","13","","arrowleft","[562,849,179,582,189,572,394,197,40,323,980,820,894,46,5,339,513,133,929,921,122,33,846,955,845,136,458,247,674,20,152,26,105,810,346,566,606,328,778,445,13,60,625,153,195,111,57,637,217,985,595,419,332,399,907,447,997,366,695,872,588,351,142,80,288,506,793,703,293,533,467,770,583,663,969,615,444,461,322,575,817,412,147,0,446,423,743,86,819,249,318,540,386,972,941,348,205,337,861,56,52,138,688,149,890,319,493,489,219,661,553,940,621,162,94,184,888,207,709,72,430,178,280,758,324,145,824,43,213,188,912,538,82,654,998,979,552,48,594,607,628,313,682,722,501,248,455,616,863,404,140,723,951,1,276,649,638,596,982,915,880,542,22,605,975,844,443,630,762,74,508,996,954,450,946,551,646,920,342,887,99,396,477,186,267,798,25,473,748,156,21,359,751,848,804,378,151,689,468,591,164,260,643,283,978,767,457,308,174,100,66,828,125,302,537,42,806,883,259,331,671,667,50,904,901,938,937,292,602,243,442,865,69,988,135,218,958,834,532,795,294,924,947,634,154,320,509,759,242,950,830,812,841,297,61,854,117,909,666,321,712,269,699,919,47,503,574,662,314,805,935,529,39,374,400,570,384,268,279,71,660,837,934,609,821,962,97,669,746,987,168,24,611,858,835,995,216,999,120,271,876,635,536,369,175,58,402,578,350,794,365,459,796,114,139,986,895,307,825,405,968,840,176,299,18,774,802,702,967,17,993,235,867,316,491,601,623,146,871,281,246,504,726,686,831,624,657,618,734,209,85,474,832,644,55,827,906,275,19,93,779,673,903,801,548,512,118,300,90,788,261,439,564,106,584,196,96,440,784,914,650,387,301,959,945,222,407,238,233,349,231,91,274,753,981,916,554,977,593,470,505,495,928,498,933,976,739,918,76,363,379,206,95,857,680,710,148,559,373,892,925,534,448,619,550,272,693,617,428,144,465,768,763,780,482,239,515,143,452,761,543,889,68,843,289,720,736,62,568,257,809,744,868,939,823,560,317,484,948,306,418,608,23,908,896,989,411,927,557,388,558,309,727,169,83,224,659,691,3,157,155,393,325,870,481,456,756,312,417,438,6,345,32,949,757,132,4,530,460,913,84,158,776,14,973,273,620,882,715,737,311,571,668,451,241,573,785,811,245,580,586,258,230,647,561,204,464,866,421,642,990,729,28,476,7,604,886,897,800,632,877,356,16,786,338,970,864,201,494,327,73,416,626,256,270,77,826,432,194,497,420,777,707,298,698,34,678,102,45,783,296,354,410,952,8,161,263,304,220,658,692,569,282,878,816,391,655,141,765,631,708,528,131,215,286,733,900,974,648,370,395,326,310,859,159,694,790,315,818,670,377,225,836,98,116,35,839,885,910,38,603,523,67,842,15,932,486,236,223,295,917,340,766,613,899,265,166,471,110,612,683,852,833,546,167,192,226,797,653,424,931,672,183,589,639,435,884,652,375,521,524,466,629,200,514,640,577,701,531,875,728,37,303,427,745,850,905,656,59,881,119,984,704,808,706,579,994,636,237,253,597,251,719,336,367,738,380,329,480,700,502,472,202,182,490,333,382,957,79,30,9,587,453,697,923,772,789,290,953,781,381,193,191,610,330,690,492,128,516,718,360,590,180,714,127,963,898,711,893,773,250,358,54,434,163,113,409,277,964,187,244,527,478,255,107,507,665,787,891,64,12,764,368,284,87,27,517,742,41,124,415,487,705,696,755,874,769,285,942,177,651,679,547,89,847,838,437,902,479,49,228,565,414,721,749,930,403,645,364,960,137,172,211,483,108,622,347,922,526,422,862,115,518,576,983,803,431,747,357,519,75,199,563,541,943,109,78,278,266,51,429,522,31,873,627,203,398,687,426,262,150,210,475,397,401,88,581,992,731,713,353,853,165,36,685,433,341,352,879,641,469,965,171,406,592,462,335,599,792,441,65,181,44,499,485,732,305,677,741,598,730,754,134,240,791,716,385,198,112,355,782,383,454,633,11,961,926,545,511,229,600,126,681,544,971,771,425,851,214,814,585,664,567,29,212,966,525,813,807,539,389,372,291,510,252,936,614,463,361,799,556,413,740,860,911,343,344,555,208,991,129,956,488,496,334,170,549,232,121,676,92,185,101,221,234,520,376,63,750,724,725,81,227,104,535,287,752,264,775,436,70,362,371,449,408,815,103,684,869,717,760,10,173,2,123,735,822,254,392,675,190,390,856,829,53,130,855,944,500,160]","arrowleft","true","0","3","267","1000","[""0074_N1000_K0267_CLIQUE"",""0050_N1000_K0267_NOCLIQUE""]"
"","","","","","audio-keyboard-response","55","35070","0.0-52.0-0.0-1.0","","null","audio_feedback/right/coin01.mp3","null","","","","0","3","267","1000","[""0074_N1000_K0267_CLIQUE"",""0050_N1000_K0267_NOCLIQUE""]"
"","","","","","canvas-keyboard-response","56","37922","0.0-53.0-0.0-0.0","","1941","","arrowleft","[144,923,862,450,441,446,702,829,856,617,56,358,396,842,487,421,389,380,454,195,247,983,952,773,30,433,927,362,528,7,120,429,766,657,101,111,42,698,84,685,202,65,151,78,455,971,807,361,210,881,326,274,866,25,124,546,226,837,168,286,814,673,756,317,501,391,806,206,621,651,915,525,739,588,859,114,997,845,813,426,398,305,313,783,133,937,918,489,634,671,31,763,45,579,382,367,851,976,672,784,5,337,20,23,507,908,287,648,193,741,59,618,772,830,378,174,67,954,654,577,52,327,852,780,980,619,310,505,559,339,68,823,257,932,888,1,849,3,747,355,848,782,140,568,281,764,871,188,406,245,613,191,690,492,704,936,537,88,79,509,897,779,345,75,119,795,284,324,786,269,143,662,469,603,665,127,785,72,252,96,368,939,348,394,686,740,544,376,605,418,730,325,602,246,495,558,531,924,46,841,903,224,870,860,920,758,175,434,831,216,480,834,322,828,981,411,152,832,100,549,292,790,998,125,940,160,781,868,905,725,513,499,472,118,137,535,344,865,934,491,516,47,843,462,476,734,985,126,229,978,298,761,607,302,272,942,826,387,430,333,110,526,647,631,312,457,304,876,106,204,727,116,732,360,975,858,793,48,595,444,90,107,582,912,820,748,709,567,18,714,179,616,58,729,371,715,708,423,484,504,87,278,580,282,432,214,587,62,957,39,256,988,545,145,512,440,655,409,37,17,370,972,774,162,200,460,947,979,388,955,53,664,395,608,365,167,289,570,678,797,464,583,166,949,16,343,112,320,417,944,669,653,510,467,792,941,99,233,991,113,350,347,353,169,57,364,854,883,76,681,989,803,164,8,136,412,381,511,108,354,10,753,69,966,223,176,494,420,573,879,902,919,527,171,751,285,359,749,683,443,799,117,716,695,401,850,241,97,514,293,660,197,323,701,19,677,303,173,778,43,486,692,551,771,534,892,422,713,817,996,250,338,2,875,309,447,244,520,718,569,938,115,297,416,102,913,697,735,943,529,154,12,294,878,637,493,71,935,742,260,442,965,928,757,804,474,776,259,600,397,50,271,521,787,275,225,969,4,680,733,234,917,857,564,990,864,94,299,684,393,896,208,731,165,77,791,916,336,590,670,227,32,26,821,958,777,953,880,682,86,572,458,295,641,599,974,956,982,541,451,895,340,89,815,962,726,453,755,466,488,720,352,872,721,547,798,789,993,279,196,181,349,885,0,468,170,694,644,459,586,180,218,132,769,249,452,538,194,104,887,471,157,775,60,445,805,808,984,262,911,658,81,70,379,524,331,561,800,643,496,676,788,930,689,649,623,424,847,760,228,584,522,705,638,745,408,833,909,576,809,63,882,237,190,482,6,238,553,198,630,49,330,960,642,967,159,626,82,566,280,357,696,884,483,385,29,536,66,497,899,563,437,889,827,142,470,554,498,604,904,36,130,614,893,635,473,723,518,839,255,242,668,74,877,571,611,770,98,737,596,711,150,448,656,667,308,675,13,251,688,335,366,717,328,201,629,105,646,926,710,239,386,34,147,439,369,743,356,835,925,759,970,500,121,403,615,863,556,838,977,148,288,277,898,64,341,819,465,523,205,332,268,593,163,267,752,192,410,413,374,212,632,211,85,855,867,794,973,736,254,122,624,91,620,276,438,506,575,562,318,844,306,557,961,41,901,35,959,950,177,363,948,508,891,425,699,945,449,301,933,995,540,869,83,346,22,724,209,131,300,910,215,123,9,679,886,581,722,377,373,503,542,652,519,311,598,28,40,199,589,221,231,253,103,296,994,585,801,693,283,186,811,818,384,840,765,11,490,822,762,258,461,463,853,128,612,243,517,812,485,273,399,220,659,392,768,477,135,873,185,178,375,428,767,435,597,51,894,155,796,479,594,625,319,15,922,700,134,502,109,861,182,44,532,609,633,907,921,691,402,187,415,548,703,265,992,846,261,80,207,383,645,264,27,240,900,372,946,161,141,314,230,315,874,515,666,184,427,674,601,906,93,431,61,129,407,156,552,404,235,334,54,636,574,481,836,414,138,650,222,986,217,999,307,14,622,738,816,291,578,628,95,746,351,533,266,92,456,802,73,55,153,183,890,610,639,342,754,33,475,606,248,824,543,436,232,270,931,591,149,316,825,750,189,555,951,744,707,263,661,550,592,987,719,663,390,400,968,530,203,929,219,478,539,560,405,38,810,565,146,963,236,321,712,290,728,213,627,640,329,24,914,687,139,158,706,964,21,172,419]","arrowleft","true","0","4","233","1000","[""0031_N1000_K0233_CLIQUE"",""0069_N1000_K0233_NOCLIQUE""]"
"","","","","","audio-keyboard-response","57","38911","0.0-53.0-0.0-1.0","","null","audio_feedback/right/coin01.mp3","null","","","","0","4","233","1000","[""0031_N1000_K0233_CLIQUE"",""0069_N1000_K0233_NOCLIQUE""]"
"","","","","","canvas-keyboard-response","58","39869","0.0-54.0-0.0-0.0","","3","","arrowleft","[282,466,944,408,605,662,711,506,103,147,260,422,887,614,902,514,340,810,957,936,759,838,600,771,889,639,28,300,308,60,418,831,593,564,584,642,173,599,384,520,921,881,49,415,193,937,551,856,376,873,358,616,52,840,775,917,215,46,423,430,697,953,632,926,534,718,964,373,429,405,488,637,836,695,500,146,591,562,777,14,370,70,190,465,559,738,988,322,200,331,32,575,304,531,234,691,537,56,213,585,892,130,20,363,92,948,26,904,516,413,985,920,378,37,725,744,548,752,361,670,528,961,41,18,99,747,10,445,803,40,845,374,336,767,489,824,354,425,461,30,432,126,665,50,239,395,693,267,510,962,108,612,945,148,619,79,732,351,305,545,24,227,462,237,768,451,403,404,295,770,763,994,353,431,696,774,653,796,90,515,905,567,986,658,699,846,397,25,375,523,83,925,911,742,409,687,909,411,579,502,666,127,468,849,624,294,512,207,891,421,595,597,950,9,634,204,875,795,369,546,668,211,977,719,45,475,949,162,914,156,231,878,306,522,982,225,218,557,655,843,183,236,630,273,13,229,910,779,903,553,758,830,307,17,210,799,652,496,476,672,293,438,946,434,654,526,741,348,257,194,122,66,901,309,499,383,388,181,915,532,518,338,544,573,235,933,641,681,941,680,246,808,436,628,290,62,851,345,71,928,140,335,827,580,402,152,241,708,394,819,352,730,996,258,68,493,715,783,65,864,940,292,826,874,816,490,58,971,101,963,313,158,180,77,773,330,189,443,872,379,927,688,674,398,364,765,844,848,212,519,217,477,698,998,486,607,453,53,184,508,527,272,214,449,469,254,601,87,318,86,812,853,401,155,29,268,63,751,197,174,0,428,633,731,679,324,850,566,169,997,323,723,868,360,541,75,753,460,521,84,547,682,424,33,582,112,310,119,243,192,118,778,232,478,73,223,923,504,208,128,329,876,301,755,15,507,446,141,481,51,700,163,707,739,983,23,608,177,722,286,984,787,317,570,21,222,303,690,743,444,625,230,671,659,5,435,377,219,598,296,191,463,726,81,972,64,589,870,842,900,879,372,280,498,797,883,69,115,980,276,455,319,841,458,7,316,483,916,834,969,918,993,456,36,785,427,714,794,549,959,167,178,314,389,202,929,132,151,270,261,529,205,371,897,956,414,125,622,899,556,97,586,120,262,995,4,297,906,187,581,321,704,602,136,347,952,667,470,978,863,31,661,244,832,818,325,287,39,922,801,72,525,137,538,448,604,78,716,542,623,740,143,769,990,182,866,896,315,571,729,966,326,509,587,396,786,439,88,694,908,487,938,263,947,852,833,656,735,245,368,55,596,94,837,991,35,186,359,709,829,631,555,663,647,939,560,452,550,772,678,176,823,247,882,172,153,973,788,437,646,934,750,195,42,800,343,706,754,284,648,539,447,886,685,734,898,454,766,327,720,702,724,958,279,406,721,407,346,256,884,171,117,333,888,450,664,426,298,139,907,302,252,390,880,692,11,250,669,299,727,473,999,817,175,480,1,736,357,27,935,673,524,701,857,860,150,98,749,590,979,129,869,43,417,530,651,712,568,491,505,249,248,328,61,675,123,416,157,107,676,513,228,932,124,341,717,756,138,209,220,226,649,311,636,54,968,484,815,686,789,440,264,393,253,494,356,992,400,677,791,960,895,106,811,497,865,457,705,563,503,342,233,583,91,930,433,201,100,149,965,93,569,954,2,578,399,603,38,259,221,277,517,627,565,166,643,683,543,271,131,536,784,745,392,790,807,349,893,913,47,748,275,629,617,367,154,951,540,8,366,479,781,113,334,561,48,285,689,164,611,188,160,610,467,203,780,283,640,761,760,987,820,976,74,76,645,535,96,762,757,291,989,485,199,442,142,894,44,168,196,161,412,955,877,216,970,255,924,144,890,855,16,111,594,847,728,337,362,684,859,861,552,912,821,606,240,339,312,867,110,242,588,703,198,572,813,441,464,644,59,657,95,185,618,19,269,135,134,104,967,159,942,733,885,102,871,635,365,85,577,332,385,57,576,116,746,620,862,82,975,274,792,825,145,114,355,381,613,109,474,554,828,782,387,170,858,382,822,943,974,919,133,501,206,224,776,710,289,592,380,609,471,419,3,165,809,931,265,386,764,281,737,793,288,650,814,459,805,638,89,802,713,67,798,179,420,854,835,391,34,22,121,266,615,238,626,660,621,511,472,981,804,350,251,574,410,533,344,492,80,105,482,278,12,839,6,806,320,495,558]","arrowleft","true","0","5","233","1000","[""0046_N1000_K0233_CLIQUE"",""0010_N1000_K0233_NOCLIQUE""]"
"","","","","","audio-keyboard-response","59","40871","0.0-54.0-0.0-1.0","","null","audio_feedback/right/coin01.mp3","null","","","","0","5","233","1000","[""0046_N1000_K0233_CLIQUE"",""0010_N1000_K0233_NOCLIQUE""]"
"","","","","","canvas-keyboard-response","60","42065","0.0-55.0-0.0-0.0","","254","","arrowleft","[890,196,896,404,135,453,738,286,678,914,888,104,483,937,309,235,458,830,679,745,3,998,22,99,308,20,796,34,829,688,24,866,136,429,859,664,801,718,671,6,751,804,400,236,740,793,666,289,547,834,170,620,140,311,850,50,48,495,680,727,11,46,629,808,761,726,766,661,774,519,574,989,610,330,317,999,349,893,647,509,420,990,267,182,265,166,459,815,530,462,635,807,833,473,501,269,779,492,422,403,778,528,973,335,572,548,242,965,611,134,561,739,715,54,228,724,555,90,540,457,534,967,883,595,701,37,675,736,76,951,955,512,398,964,194,416,115,224,986,413,172,692,592,936,898,288,111,169,932,737,397,750,926,355,83,643,571,304,776,208,454,665,823,720,508,529,260,452,98,649,910,732,854,753,997,281,783,43,350,864,702,284,544,887,117,911,245,836,803,683,449,889,771,820,248,124,557,387,181,365,543,340,977,478,298,179,10,341,433,5,638,769,300,326,917,82,963,331,672,626,782,463,142,357,839,253,293,285,762,725,498,444,700,280,178,390,338,377,619,863,131,657,558,378,860,667,175,282,95,232,201,691,563,946,354,14,809,94,252,241,244,8,869,894,979,114,210,582,156,273,363,523,532,344,819,531,546,711,125,846,474,618,471,214,192,327,176,197,427,768,84,788,362,935,173,207,137,805,749,984,942,912,221,704,497,842,406,996,976,821,728,45,928,599,193,983,202,229,439,448,553,814,409,915,933,729,88,446,895,499,119,431,85,974,347,591,100,78,13,319,470,476,145,26,995,723,907,923,215,292,884,303,573,608,710,785,920,70,366,505,622,765,437,141,442,941,450,370,392,402,837,939,151,379,47,690,199,405,972,455,163,641,637,589,874,348,630,127,343,489,682,899,138,107,742,719,359,126,432,556,200,2,877,39,950,318,840,222,767,584,149,106,342,699,216,981,799,900,871,552,945,23,102,69,713,970,52,988,681,980,975,189,993,49,415,233,361,525,633,456,243,234,36,57,255,985,947,603,968,716,856,585,305,685,150,159,482,460,921,323,60,87,468,187,506,12,68,79,577,195,730,627,780,770,795,686,62,440,259,485,954,211,393,352,580,800,542,659,167,598,408,426,367,781,576,991,674,351,395,908,28,760,927,655,734,56,831,867,73,411,581,518,160,477,53,287,689,537,301,934,479,345,918,270,579,118,296,316,364,18,310,747,183,784,507,185,414,372,903,735,434,669,65,902,764,644,645,731,957,566,624,500,72,600,656,992,816,464,1,931,314,522,559,787,154,880,399,733,849,40,755,41,17,662,360,789,943,873,511,279,27,763,748,897,832,441,721,339,329,642,797,938,541,86,878,536,623,264,186,881,227,25,504,578,419,261,625,587,164,510,861,418,994,663,520,654,892,835,263,144,516,91,417,396,391,639,513,838,121,959,302,71,845,650,773,515,110,886,517,410,670,31,714,9,469,772,231,198,872,256,709,171,59,168,63,549,651,21,237,811,502,291,219,101,653,165,103,217,904,852,64,155,862,353,247,486,321,554,225,613,806,969,177,960,929,356,276,628,93,275,412,756,631,257,250,575,274,596,113,313,461,423,677,74,209,77,916,708,315,246,857,693,75,925,605,885,930,868,332,369,487,606,152,754,822,188,120,146,158,673,122,490,143,786,597,913,924,380,294,61,707,223,958,956,89,615,0,802,818,133,258,652,949,526,388,545,909,697,92,882,148,191,128,283,961,272,684,791,758,249,876,794,220,42,901,865,564,205,447,966,810,614,560,646,706,451,944,841,694,139,590,430,105,424,570,297,385,562,987,705,757,535,828,51,262,484,268,306,336,741,375,382,277,551,817,514,858,96,97,843,162,940,81,632,503,401,322,368,67,38,389,698,775,421,634,496,539,906,777,905,129,712,147,824,844,744,601,636,593,948,607,337,443,488,604,962,184,55,324,438,373,594,381,29,827,266,109,428,307,953,759,66,15,848,567,668,621,320,648,203,855,717,58,386,251,407,295,290,334,30,35,445,527,491,278,394,602,919,971,425,568,524,80,617,4,879,481,325,696,299,123,695,465,130,312,586,180,565,612,703,376,640,687,658,472,204,676,333,475,752,493,952,466,190,521,328,174,19,538,870,218,32,609,922,875,436,374,435,213,33,108,358,798,826,240,743,161,371,112,812,206,616,569,157,978,792,16,254,239,813,746,153,494,722,853,226,825,212,384,346,116,132,847,7,271,660,44,383,550,583,480,230,238,588,982,790,851,533,891,467]","arrowleft","true","0","6","217","1000","[""0061_N1000_K0217_CLIQUE"",""0085_N1000_K0217_NOCLIQUE""]"
"","","","","","audio-keyboard-response","61","43070","0.0-55.0-0.0-1.0","","null","audio_feedback/right/coin01.mp3","null","","","","0","6","217","1000","[""0061_N1000_K0217_CLIQUE"",""0085_N1000_K0217_NOCLIQUE""]"
"","","","","","canvas-keyboard-response","62","44361","0.0-56.0-0.0-0.0","","373","","arrowleft","[242,131,468,326,724,269,487,746,141,6,50,523,747,462,867,236,706,112,314,618,605,816,781,507,717,922,855,247,869,412,937,850,822,367,226,52,992,168,16,43,329,355,802,532,694,23,817,592,502,744,917,948,181,736,537,754,316,9,120,805,354,784,991,767,654,739,333,90,212,758,664,169,953,18,182,191,771,192,945,933,982,775,828,845,87,258,693,560,671,45,718,17,836,466,53,609,308,418,722,958,751,403,46,976,174,993,356,115,222,800,710,365,99,770,59,905,377,990,961,870,666,558,186,1,674,766,330,765,752,909,868,430,47,713,595,92,471,934,206,946,831,553,748,243,286,68,309,810,482,448,886,620,452,779,498,134,624,197,829,871,621,443,659,2,195,121,218,628,550,510,265,180,138,935,114,644,895,481,447,82,440,921,276,473,48,36,349,260,398,372,872,714,883,164,875,965,916,514,737,41,148,31,194,535,974,369,675,304,290,760,486,450,249,95,887,574,950,919,184,5,525,227,419,379,455,988,338,207,311,386,663,467,454,291,8,981,477,613,205,707,762,480,516,74,122,202,389,563,271,647,667,662,394,626,67,623,580,984,874,907,804,453,444,331,421,167,346,634,362,318,299,927,494,573,576,71,245,658,163,673,363,495,924,894,56,456,636,63,830,899,159,995,232,410,854,105,70,975,155,357,730,508,885,370,150,275,368,962,538,568,400,22,761,849,307,944,972,208,547,925,334,702,631,691,485,608,97,505,660,221,479,896,171,201,841,785,348,996,28,198,49,635,814,703,641,555,396,303,254,940,280,110,668,676,320,600,597,720,554,582,616,20,593,106,14,920,561,405,833,178,225,24,153,376,437,652,261,881,860,152,189,949,64,238,409,390,220,406,175,531,179,127,161,980,577,873,441,863,790,557,772,630,433,302,80,193,312,893,632,640,565,789,62,832,795,524,757,838,10,172,139,973,347,234,955,273,915,823,656,999,176,183,851,575,549,426,78,173,57,819,399,428,692,484,40,897,827,323,474,37,646,645,572,373,187,158,969,252,951,385,239,687,11,129,599,960,900,411,994,861,292,58,475,3,285,768,501,157,579,54,928,289,711,696,359,750,983,756,614,263,34,755,460,446,101,512,144,695,534,530,325,210,108,797,371,701,923,235,866,387,298,402,799,569,704,966,926,540,407,625,132,135,578,911,858,588,979,728,932,109,689,709,489,562,773,270,978,661,743,32,360,586,847,83,682,224,301,787,472,650,237,488,283,86,798,564,796,415,808,240,783,439,12,520,546,906,128,970,423,697,435,445,684,177,216,844,72,147,941,305,380,567,228,392,929,149,963,723,26,490,665,170,604,324,374,777,627,61,513,294,908,551,272,364,527,449,44,442,954,118,901,807,835,185,88,536,889,903,764,734,166,749,327,545,826,552,672,731,219,590,156,119,890,391,85,964,542,499,137,820,463,745,30,250,539,601,910,306,571,133,859,111,375,116,806,264,892,352,651,217,957,458,165,69,162,788,500,769,281,649,912,340,793,918,478,786,865,321,142,203,678,257,209,846,612,882,27,759,655,93,317,397,154,603,611,284,842,295,140,422,985,685,382,943,504,429,33,639,521,643,753,888,229,876,716,476,130,715,341,383,223,947,566,526,705,968,726,884,420,94,606,414,416,288,451,104,350,493,7,413,914,233,4,29,492,813,241,585,733,393,602,0,384,381,517,774,231,353,727,196,680,457,529,344,533,852,42,339,811,345,146,581,75,35,977,279,690,648,840,742,834,528,610,509,424,188,700,583,857,469,246,967,125,497,38,315,55,123,522,287,211,378,432,89,25,878,515,19,812,587,653,669,337,96,91,698,607,837,300,591,657,902,332,81,952,282,230,15,342,268,491,930,117,548,335,39,160,729,151,688,541,699,776,496,825,388,782,939,942,741,98,622,21,395,248,642,913,559,556,931,470,880,296,404,638,619,73,719,936,853,358,136,483,791,313,864,76,13,65,708,431,989,596,598,971,293,725,107,259,427,938,794,319,506,956,401,679,145,594,998,215,877,637,570,66,843,824,214,267,464,721,856,361,434,904,763,190,113,780,519,738,408,815,735,277,124,278,712,343,987,417,436,544,997,204,126,322,256,617,629,79,251,543,821,100,891,615,879,792,839,683,681,77,266,102,801,143,244,898,778,686,297,959,848,670,84,199,503,862,809,461,351,213,328,366,51,803,818,465,274,60,584,200,518,253,677,262,511,732,425,459,103,438,336,633,589,255,310,740,986]","arrowright","false","0","7","217","1000","[""0031_N1000_K0217_NOCLIQUE"",""0041_N1000_K0217_CLIQUE""]"
"","","","","","audio-keyboard-response","63","45350","0.0-56.0-0.0-1.0","","null","audio_feedback/wrong/error01.mp3","null","","","","0","7","217","1000","[""0031_N1000_K0217_NOCLIQUE"",""0041_N1000_K0217_CLIQUE""]"
"","","","","","canvas-keyboard-response","64","46260","0.0-57.0-0.0-0.0","","3","","arrowleft","[427,31,534,580,900,275,331,450,222,182,288,447,8,720,990,964,466,902,37,187,499,739,150,653,881,221,565,472,969,156,530,345,280,665,100,674,522,698,767,660,219,843,823,516,896,705,131,440,278,413,984,142,448,1,691,599,29,889,791,579,765,911,662,487,220,689,657,75,132,400,807,841,457,578,770,196,461,47,533,614,697,768,451,3,35,302,929,928,514,0,127,992,163,836,735,24,129,804,936,468,301,195,62,125,237,265,609,861,714,449,523,399,486,613,429,916,692,646,268,517,996,113,162,215,966,733,34,797,750,194,137,209,621,866,393,408,279,680,291,951,939,191,508,659,591,995,893,612,798,147,671,315,424,354,210,618,201,155,610,811,423,722,108,548,216,839,838,963,762,771,213,632,870,390,438,965,679,184,922,512,166,827,304,816,407,418,981,864,561,718,69,796,590,686,630,428,7,122,633,377,262,986,411,395,172,295,723,954,98,885,99,721,208,71,978,502,235,919,500,497,145,319,274,543,555,232,817,294,463,572,123,435,728,309,380,812,997,352,766,310,650,529,593,636,32,54,28,542,52,794,942,298,49,335,313,595,381,384,731,77,368,402,607,469,772,38,101,702,231,744,820,748,246,432,759,860,349,70,596,999,873,281,764,495,476,126,53,669,977,886,197,712,5,276,343,6,556,525,672,574,4,639,50,299,111,355,260,136,247,306,439,326,814,267,528,694,114,570,888,763,30,778,73,521,676,314,908,63,703,895,998,193,974,921,9,321,257,513,488,406,176,953,378,236,663,736,56,242,687,847,329,775,913,189,39,250,934,617,190,746,933,470,360,161,740,576,271,45,93,585,868,539,454,884,938,930,622,259,787,398,515,863,12,635,917,117,716,351,603,774,821,149,806,338,455,356,652,752,557,308,563,857,192,566,303,462,105,135,605,353,318,240,783,464,370,983,715,16,286,64,296,878,239,82,33,892,897,562,297,421,322,719,78,830,801,550,76,158,387,553,668,59,587,211,960,695,256,829,375,649,55,834,89,600,988,112,941,249,629,611,631,357,598,419,677,255,835,654,478,290,538,489,115,263,238,640,597,602,307,144,283,782,412,25,95,363,780,167,506,761,347,825,36,366,577,749,253,803,361,569,788,415,339,226,371,583,58,379,61,465,903,935,324,94,104,707,460,962,490,546,453,725,927,851,549,385,48,799,991,904,188,205,183,832,667,153,185,899,223,431,441,43,121,178,558,41,252,940,850,233,589,729,218,388,824,26,813,479,146,212,277,160,971,91,20,118,912,809,950,88,68,760,882,769,11,738,140,708,327,434,86,484,588,961,634,261,2,979,915,74,21,651,229,116,312,369,527,18,207,328,855,758,638,690,292,701,985,96,683,97,918,83,168,923,879,203,186,337,154,251,445,643,822,130,422,391,414,243,849,42,952,628,815,747,867,90,852,272,704,359,989,80,403,620,840,619,459,471,828,284,285,342,584,509,443,386,661,853,157,682,773,269,230,856,524,955,844,365,994,906,84,581,526,333,273,675,241,72,568,425,374,710,493,396,833,875,206,784,225,536,409,552,883,10,681,734,755,901,344,958,699,152,433,79,757,17,170,60,40,709,148,214,287,169,711,808,507,316,426,300,567,520,754,481,248,446,228,204,616,909,376,625,623,173,532,854,972,317,795,932,781,626,793,696,541,531,81,914,134,571,802,311,792,505,320,776,848,594,110,575,254,980,724,323,348,496,480,103,753,846,819,141,389,559,967,688,726,858,743,452,367,535,13,282,869,641,642,293,181,477,685,227,826,92,330,777,544,258,706,180,15,785,107,592,350,948,742,511,645,67,444,655,874,473,436,482,637,198,175,405,845,947,673,501,442,57,547,120,805,66,943,745,383,926,606,179,325,270,334,417,789,483,510,332,364,151,554,894,831,880,859,937,987,202,372,968,664,404,420,973,800,392,573,604,608,289,871,106,700,128,65,224,564,416,177,244,837,945,648,920,684,467,891,975,23,14,624,876,245,340,737,717,518,346,887,456,842,537,727,818,730,199,475,865,890,358,138,437,976,732,582,133,751,779,44,949,741,171,644,382,601,925,27,931,165,627,164,124,713,504,693,266,458,615,756,658,786,560,485,790,401,678,85,519,143,119,872,341,957,46,877,551,200,234,51,944,394,305,410,174,474,956,264,666,656,959,336,430,905,910,397,545,810,159,498,373,22,586,87,970,647,898,362,139,491,102,109,494,503,993,492,217,19,670,907,862,946,924,982,540]","arrowright","false","0","8","200","1000","[""0008_N1000_K0200_NOCLIQUE"",""0090_N1000_K0200_CLIQUE""]"
"","","","","","audio-keyboard-response","65","47251","0.0-57.0-0.0-1.0","","null","audio_feedback/wrong/error01.mp3","null","","","","0","8","200","1000","[""0008_N1000_K0200_NOCLIQUE"",""0090_N1000_K0200_CLIQUE""]"
"","","","","","canvas-keyboard-response","66","48194","0.0-58.0-0.0-0.0","","3","","arrowleft","[244,223,841,713,327,616,351,747,811,594,956,592,374,369,597,755,959,197,131,781,489,33,32,24,921,701,320,85,422,962,840,344,232,817,477,367,770,68,389,541,44,307,925,180,145,404,611,453,839,407,805,716,303,12,582,169,898,678,923,170,599,605,723,155,786,852,151,137,204,670,718,102,356,388,652,948,408,928,480,902,815,342,164,198,783,43,598,596,436,409,373,999,618,920,478,619,348,527,986,933,849,761,347,512,857,560,979,535,129,695,256,91,780,290,574,627,322,656,455,980,848,333,217,13,729,157,773,565,99,724,995,940,733,5,650,483,189,910,106,661,248,555,361,806,585,908,814,931,355,626,546,506,690,111,246,202,699,625,681,609,138,953,614,90,739,208,272,346,425,810,412,233,790,139,550,994,744,895,66,584,300,462,507,665,11,130,212,40,451,415,58,435,434,454,216,173,659,25,337,589,475,247,807,42,294,894,901,209,715,888,368,37,270,673,390,312,929,722,325,697,253,572,241,438,579,749,67,89,52,250,519,428,414,570,543,446,286,234,146,281,152,430,867,640,914,935,279,112,903,500,711,966,472,469,558,391,495,657,54,336,963,860,847,641,843,742,501,624,735,578,293,797,864,443,466,239,72,370,236,836,396,265,827,613,758,181,712,166,150,7,245,255,692,870,876,768,97,571,65,18,732,557,513,467,973,364,445,269,28,228,35,120,331,822,140,799,22,83,556,339,274,740,702,576,819,682,291,240,544,41,873,704,287,329,452,534,736,756,179,289,591,499,362,186,441,662,875,278,398,30,62,218,916,378,101,405,651,491,829,741,231,419,156,617,174,636,249,365,481,235,551,767,93,309,311,305,258,87,851,511,123,660,912,725,949,372,547,804,60,533,937,854,750,525,162,69,792,410,668,580,423,19,990,238,784,159,922,183,521,872,418,581,210,540,950,964,721,70,653,103,51,779,639,600,193,122,292,998,251,371,974,520,774,782,317,493,295,985,401,680,242,9,392,188,479,934,927,168,59,944,243,224,776,45,184,154,226,917,330,88,119,14,595,81,988,687,623,689,607,104,568,350,861,421,794,254,463,531,400,981,567,818,812,55,196,824,789,717,997,952,522,939,473,285,727,394,308,341,94,646,743,728,282,497,252,593,328,268,960,74,644,488,229,643,663,831,813,731,757,78,158,124,335,449,834,676,450,664,808,645,225,688,823,304,737,562,795,171,461,383,897,936,906,669,127,2,563,323,80,633,486,975,548,648,845,53,881,989,991,98,26,666,444,118,185,133,603,149,257,890,206,610,17,942,996,261,708,707,508,947,675,192,191,577,993,73,447,271,637,319,738,125,798,924,86,775,84,207,187,324,273,892,748,554,353,685,587,338,49,115,220,302,31,684,494,144,538,456,313,765,961,590,871,92,214,432,951,420,528,677,107,882,267,762,760,50,726,459,542,260,23,266,976,288,15,77,433,825,504,199,476,694,638,886,143,566,161,703,879,437,284,205,709,213,887,21,705,828,297,671,429,116,29,904,474,299,96,674,632,182,498,492,620,484,517,983,838,913,134,314,658,345,200,958,604,968,803,932,117,635,628,27,529,899,395,203,63,221,376,868,539,163,561,978,874,835,655,283,0,553,264,135,8,505,318,612,516,237,64,926,970,470,889,113,672,575,160,686,820,277,195,6,416,375,114,930,142,969,693,788,791,259,938,48,549,276,730,880,745,110,424,837,485,573,315,71,175,417,222,984,532,509,510,275,172,384,955,426,310,219,629,907,358,334,821,3,856,853,945,132,896,941,523,759,128,411,406,844,403,487,583,800,201,153,866,427,569,263,381,457,911,696,893,832,753,877,771,380,177,108,710,698,987,943,559,458,121,1,514,56,691,967,809,785,518,622,977,165,167,377,262,326,885,919,537,802,752,385,379,526,496,316,850,830,878,464,503,891,787,683,992,354,357,846,586,957,621,306,654,460,178,431,833,440,859,606,359,751,399,601,769,298,20,82,109,918,634,382,490,340,296,884,448,793,95,16,4,38,667,564,602,194,647,842,10,126,465,280,393,366,530,468,230,630,615,442,545,413,631,332,971,720,778,515,524,363,777,321,816,796,954,227,76,502,482,642,900,706,982,105,883,61,349,679,946,39,972,746,869,588,909,386,136,754,402,147,734,608,862,397,211,801,34,719,176,36,79,360,858,826,764,649,46,190,343,772,215,714,855,865,536,57,352,141,148,965,47,471,915,75,863,100,905,700,439,763,552,387,301,766]","arrowright","false","0","9","200","1000","[""0100_N1000_K0200_NOCLIQUE"",""0024_N1000_K0200_CLIQUE""]"
"","","","","","audio-keyboard-response","67","49190","0.0-58.0-0.0-1.0","","null","audio_feedback/wrong/error01.mp3","null","","","","0","9","200","1000","[""0100_N1000_K0200_NOCLIQUE"",""0024_N1000_K0200_CLIQUE""]"
"","","","","","canvas-keyboard-response","68","50226","0.0-59.0-0.0-0.0","","3","","arrowleft","[271,437,886,979,106,272,930,210,788,482,940,795,315,632,817,302,312,806,527,837,896,370,59,667,884,293,172,768,559,878,752,562,191,852,871,497,251,348,588,133,819,68,110,363,966,590,740,444,902,104,368,895,18,761,265,54,665,305,384,87,56,700,480,217,672,269,653,778,952,78,448,49,756,209,677,948,827,308,317,458,555,893,764,57,354,905,94,294,783,550,542,323,972,215,418,865,695,117,676,648,344,822,544,456,942,362,586,892,129,332,495,569,925,492,701,406,13,179,594,465,488,205,841,25,699,181,504,800,41,435,244,720,508,412,736,99,154,225,777,624,573,831,832,545,498,123,570,970,316,514,296,442,773,689,321,30,730,70,214,599,606,287,0,811,324,270,250,679,280,608,417,927,212,960,393,178,192,189,918,564,988,186,173,875,27,802,994,479,273,639,147,744,922,739,425,882,52,907,199,571,373,602,654,276,860,236,224,196,732,285,34,336,111,596,989,390,686,759,843,702,190,246,438,763,533,267,40,155,500,523,641,552,3,796,578,521,420,810,650,249,637,483,813,467,546,206,343,721,407,929,5,651,264,475,289,975,388,900,911,100,718,785,854,369,984,396,568,566,939,673,258,291,46,193,319,485,916,621,585,826,422,118,170,29,631,282,380,734,973,262,876,462,688,402,151,286,450,512,144,65,45,346,522,633,656,436,935,371,779,419,17,161,781,86,582,717,557,304,993,722,19,149,727,502,168,183,553,834,24,642,684,565,507,15,977,460,589,543,919,431,724,704,996,668,79,470,885,615,211,921,889,858,864,829,782,237,232,430,799,341,357,132,708,395,126,11,218,95,223,830,382,640,531,978,375,848,776,158,167,84,345,616,263,751,381,221,398,487,494,75,899,284,598,954,877,597,786,416,399,325,990,471,762,716,329,159,247,295,793,903,808,411,529,595,998,824,804,961,846,769,505,392,805,997,473,880,429,335,749,174,726,453,338,647,452,856,98,188,469,580,51,35,428,873,801,850,592,309,516,618,160,310,42,200,337,959,481,136,951,259,816,16,182,198,446,528,987,649,353,164,610,213,943,691,839,964,69,414,387,941,851,894,551,757,491,202,226,33,124,292,288,534,219,623,21,937,227,44,976,681,107,73,421,563,257,536,663,204,177,898,307,962,451,540,328,607,775,711,861,410,662,853,754,157,868,953,278,714,625,709,238,96,415,658,748,995,92,423,240,220,130,923,503,509,301,712,614,661,671,74,102,208,334,985,945,434,66,879,938,863,745,883,532,774,707,605,901,524,737,474,14,981,260,245,62,787,561,318,299,119,146,936,195,105,558,664,554,351,967,669,131,268,490,8,539,581,277,478,409,655,556,924,229,476,519,253,870,914,166,228,659,866,872,807,352,887,517,969,626,928,274,9,203,28,378,958,510,112,426,255,603,715,85,698,7,116,982,64,949,638,946,891,374,991,622,666,365,735,772,222,657,789,974,675,320,645,842,574,128,535,457,361,472,333,36,349,290,37,609,468,67,780,499,678,71,999,755,230,862,634,548,138,4,729,39,697,327,723,674,888,845,797,963,644,90,926,72,447,443,957,859,917,31,513,394,652,980,114,683,627,604,836,906,379,184,424,613,867,612,520,163,156,758,463,20,322,547,408,680,728,350,628,386,261,165,360,389,187,601,790,108,828,455,283,947,593,122,955,6,359,511,313,515,803,22,60,50,81,820,298,377,55,241,314,26,38,342,915,88,518,791,713,256,197,741,401,376,93,152,577,897,682,770,135,489,330,464,216,91,983,636,630,83,746,501,461,2,646,266,77,486,385,933,194,694,541,932,484,869,207,347,141,366,109,617,753,185,140,986,441,231,944,525,685,101,134,549,855,579,275,619,48,142,814,844,692,496,733,139,80,583,890,537,874,235,794,560,150,201,703,413,530,400,696,818,840,97,440,968,934,120,171,10,750,620,364,575,847,743,812,397,234,300,587,306,687,719,148,766,1,427,738,32,693,331,303,920,950,103,731,584,63,526,391,767,89,47,591,281,572,725,445,823,904,538,339,233,849,248,356,912,432,835,742,405,367,493,815,965,706,747,53,576,909,125,162,908,115,690,771,82,798,705,784,643,242,792,931,660,76,910,404,355,454,372,838,403,833,113,121,127,311,992,153,710,477,971,913,825,670,143,297,760,611,254,506,243,433,857,58,881,449,279,175,600,239,12,466,252,821,358,169,383,176,956,23,567,61,145,629,326,809,459,765,137,439,635,43,180,340]","arrowleft","true","0","10","183","1000","[""0068_N1000_K0183_CLIQUE"",""0095_N1000_K0183_NOCLIQUE""]"
"","","","","","audio-keyboard-response","69","51210","0.0-59.0-0.0-1.0","","null","audio_feedback/right/coin01.mp3","null","","","","0","10","183","1000","[""0068_N1000_K0183_CLIQUE"",""0095_N1000_K0183_NOCLIQUE""]"
"","","","","","canvas-keyboard-response","70","52715","0.0-60.0-0.0-0.0","","569","","arrowleft","[926,724,534,538,356,824,180,540,113,223,545,944,542,681,888,883,936,980,541,717,41,152,243,45,695,46,375,347,948,259,501,153,20,216,573,198,221,861,233,702,997,619,282,461,692,35,992,279,326,571,935,284,140,927,633,93,805,640,986,503,163,807,743,364,649,586,116,224,589,402,447,21,871,617,222,842,440,643,76,380,199,34,574,772,867,763,776,314,129,471,11,391,60,70,984,166,825,752,947,428,392,376,991,521,637,0,108,937,256,978,629,614,645,169,765,591,8,584,731,273,18,384,889,211,732,102,476,583,486,716,281,205,14,353,708,939,80,644,298,916,925,235,668,317,483,536,941,759,122,740,551,480,840,390,30,252,636,67,555,855,287,231,972,596,569,610,507,553,358,118,837,648,94,415,98,328,71,359,64,168,165,97,299,28,721,335,417,125,462,240,983,951,210,918,3,863,598,485,909,949,560,242,786,819,832,212,184,773,63,911,504,6,115,88,834,120,1,898,162,897,848,693,173,862,839,149,943,274,266,828,961,426,968,719,525,194,349,308,975,419,608,529,429,43,755,661,609,746,155,682,90,228,414,300,712,784,255,957,757,355,200,813,802,964,663,998,958,295,396,513,725,774,546,749,593,257,304,285,220,794,373,248,856,563,982,572,331,427,581,753,477,204,820,325,465,170,127,446,806,875,923,136,95,418,491,172,833,13,994,758,33,303,237,135,203,389,332,908,408,967,470,885,487,72,917,39,575,209,395,882,312,245,793,735,157,100,770,5,498,164,422,685,522,400,340,781,697,745,89,635,239,333,747,202,497,322,423,286,218,432,976,985,42,399,568,271,272,261,826,664,54,393,700,722,99,606,554,207,632,579,454,291,329,208,201,404,191,624,987,874,214,527,493,780,559,348,970,424,365,789,69,87,369,836,775,451,412,25,979,227,517,288,900,289,264,678,687,318,49,750,453,739,171,675,82,562,684,374,733,65,891,657,557,502,29,710,58,660,963,956,549,921,887,397,92,431,351,394,433,368,934,458,694,658,144,857,790,804,311,61,382,514,386,466,195,232,787,604,9,495,993,620,594,873,186,160,647,965,156,762,729,720,877,582,455,370,564,81,50,262,785,718,22,323,526,973,150,276,938,835,441,269,377,467,760,754,756,827,253,132,107,398,508,638,337,955,924,988,84,655,430,737,671,714,518,519,246,690,316,499,187,413,922,130,864,334,535,531,27,580,945,680,193,893,715,960,797,999,12,147,627,669,109,444,410,344,161,910,870,809,742,616,605,460,866,744,689,105,599,302,345,741,324,767,19,505,388,234,26,792,146,844,778,24,816,178,469,850,343,403,409,23,181,969,17,869,738,654,250,532,588,301,44,258,488,330,679,670,177,85,587,652,801,103,310,890,468,886,496,903,174,294,940,576,631,123,154,37,475,928,623,106,705,265,225,771,141,457,378,567,352,592,15,930,952,230,800,448,10,818,439,666,578,167,111,913,270,686,478,247,895,437,459,659,32,490,183,405,363,628,142,906,159,192,83,701,919,734,449,995,899,841,176,707,188,4,381,950,808,297,783,929,646,711,238,859,748,683,482,845,515,226,977,484,815,126,954,642,148,78,641,847,621,128,263,179,57,315,603,665,267,509,74,533,443,543,341,860,613,788,537,383,59,55,110,336,401,435,309,371,677,215,268,796,971,868,561,914,626,880,698,558,283,438,190,565,791,650,511,206,73,777,996,799,761,494,145,876,830,407,217,851,831,2,47,506,138,672,379,464,566,931,667,79,639,706,782,420,117,131,112,933,974,275,52,139,236,704,104,656,812,881,48,185,277,143,884,241,524,601,981,691,539,730,321,556,425,821,244,803,189,53,229,406,709,151,990,544,434,489,726,751,764,915,779,723,339,313,473,75,372,769,530,411,133,817,905,452,607,445,91,56,612,516,510,361,68,320,114,319,849,134,822,101,768,366,736,959,213,450,357,727,306,500,249,843,858,872,946,853,197,904,810,38,158,611,442,674,360,615,290,292,894,673,196,703,630,989,907,51,77,953,846,492,119,653,676,600,7,66,696,688,602,823,550,865,590,137,878,713,585,634,278,463,327,814,570,520,625,901,254,456,512,811,338,552,16,479,766,251,421,829,892,474,577,219,622,932,472,293,854,121,523,31,920,362,296,595,798,699,175,618,528,342,350,62,387,597,481,367,280,966,416,912,96,124,962,385,838,942,436,346,354,896,852,547,728,86,795,260,548,307,879,36,182,305,651,40,662,902]","arrowleft","true","0","11","183","1000","[""0031_N1000_K0183_CLIQUE"",""0026_N1000_K0183_NOCLIQUE""]"
"","","","","","audio-keyboard-response","71","53710","0.0-60.0-0.0-1.0","","null","audio_feedback/right/coin01.mp3","null","","","","0","11","183","1000","[""0031_N1000_K0183_CLIQUE"",""0026_N1000_K0183_NOCLIQUE""]"
"","","","","","canvas-keyboard-response","72","54782","0.0-61.0-0.0-0.0","","131","","arrowleft","[598,893,935,731,717,14,169,949,32,250,474,811,112,401,423,177,468,273,483,344,740,432,452,360,370,35,995,362,955,57,202,130,807,891,664,847,971,424,205,28,214,872,331,103,313,863,699,459,778,764,994,725,258,63,541,763,246,812,907,406,56,364,165,941,871,561,695,851,477,578,332,883,60,359,172,199,95,506,965,533,857,832,114,646,820,806,610,581,625,887,20,304,517,892,490,454,983,616,617,991,868,422,303,39,179,713,508,405,201,208,255,196,846,757,959,640,180,417,813,522,15,45,94,289,969,147,287,157,974,864,131,593,293,170,821,372,449,815,607,413,735,210,585,942,6,679,609,588,10,262,299,105,880,849,438,166,465,737,384,903,473,745,570,294,819,873,43,163,133,970,42,375,754,499,40,782,479,115,752,46,877,100,878,434,409,243,296,684,840,835,135,512,972,19,982,412,223,720,471,889,777,945,558,119,765,82,797,411,736,575,958,146,107,349,537,919,394,671,447,496,963,89,64,174,233,507,259,325,371,568,300,824,66,964,242,779,418,785,865,13,460,34,380,608,187,780,875,956,726,635,615,4,750,770,694,525,900,113,390,924,415,504,44,376,236,441,845,378,433,595,886,742,11,256,318,65,330,428,292,524,248,861,99,188,399,78,546,528,783,391,724,597,182,866,925,732,836,494,668,153,630,839,238,990,118,280,398,21,80,934,602,685,295,975,237,540,357,275,265,601,968,203,440,822,260,309,584,653,843,207,244,271,16,101,859,123,272,587,960,480,212,184,314,427,759,768,543,245,529,159,144,108,686,75,629,348,714,307,814,253,160,667,263,162,366,88,647,189,829,430,458,795,421,164,831,803,124,882,62,358,574,152,951,513,227,151,377,549,952,655,356,104,224,612,534,784,79,747,442,761,557,560,85,774,957,470,429,336,379,213,663,583,175,317,351,194,27,70,651,0,915,200,518,209,817,599,369,523,544,876,729,277,137,791,943,220,980,386,445,322,461,492,808,29,641,143,743,993,642,41,637,97,226,481,154,901,345,614,766,138,216,186,632,758,645,36,920,400,23,71,940,283,136,31,552,744,484,278,464,76,493,425,810,936,139,923,793,450,801,918,762,802,837,998,324,727,696,127,733,818,986,347,535,739,9,566,894,542,594,286,606,656,564,989,335,120,158,12,334,798,279,870,867,554,781,48,967,497,222,319,435,486,933,953,648,978,825,501,799,624,24,634,3,167,126,709,59,862,536,455,389,392,674,853,231,895,129,619,738,927,890,443,708,741,590,68,704,869,288,711,937,715,149,90,556,489,190,569,333,687,361,844,183,252,509,922,235,562,267,547,448,905,930,775,511,580,579,879,397,410,788,573,888,622,251,690,688,734,117,69,254,382,592,776,874,992,545,767,352,217,310,842,176,772,87,402,858,269,274,929,257,367,855,885,718,488,848,999,749,914,906,917,644,680,396,902,8,633,407,381,197,603,604,472,899,944,691,539,841,721,323,315,291,122,856,961,408,884,909,109,475,74,178,404,516,116,794,110,219,387,657,710,456,683,22,225,828,505,414,514,912,670,926,898,904,365,140,672,239,326,232,312,701,723,973,281,368,600,373,693,340,703,374,521,338,316,946,692,928,649,276,658,921,302,654,305,121,102,457,591,342,419,830,755,669,211,431,550,437,728,142,613,826,476,77,495,804,559,502,673,623,249,72,823,51,730,487,482,7,81,363,618,341,155,850,628,753,526,206,787,751,567,339,264,988,308,769,247,86,268,916,439,466,908,416,55,67,538,636,792,38,997,106,156,950,354,58,353,298,469,321,515,420,639,141,530,485,383,467,132,977,565,241,519,662,913,337,712,705,697,979,816,111,698,1,134,689,195,83,676,611,551,716,833,54,650,500,746,173,621,827,128,700,346,453,193,987,665,26,444,403,563,572,30,503,52,789,229,150,148,282,553,204,938,393,49,571,17,171,681,586,852,748,462,939,838,491,996,962,548,985,532,576,976,98,53,631,327,240,261,796,707,478,350,33,897,234,678,661,834,395,50,290,311,306,388,931,786,582,805,719,954,329,638,168,510,659,385,5,854,285,771,228,682,910,218,577,297,626,328,620,181,790,301,498,463,911,702,270,627,191,192,446,809,230,96,860,706,675,800,91,161,643,660,426,596,555,61,981,605,531,451,527,2,756,73,666,677,125,881,84,284,760,221,25,966,18,92,948,320,773,355,266,947,145,93,520,185,652,722,198,436,984,932,47,215,589,896,37,343]","arrowleft","true","0","12","167","1000","[""0032_N1000_K0167_CLIQUE"",""0001_N1000_K0167_NOCLIQUE""]"
"","","","","","audio-keyboard-response","73","55770","0.0-61.0-0.0-1.0","","null","audio_feedback/right/coin01.mp3","null","","","","0","12","167","1000","[""0032_N1000_K0167_CLIQUE"",""0001_N1000_K0167_NOCLIQUE""]"
"","","","","","canvas-keyboard-response","74","56713","0.0-62.0-0.0-0.0","","3","","arrowleft","[965,717,706,138,979,664,550,656,610,797,945,569,233,245,592,142,561,568,306,66,296,21,991,353,204,796,711,633,749,165,447,420,251,907,203,60,755,361,48,89,46,542,621,288,995,878,215,738,29,243,536,861,515,914,265,829,252,966,397,609,584,379,831,464,825,533,798,250,653,451,724,652,617,461,794,778,761,637,994,49,297,643,524,837,336,917,375,606,413,73,54,658,817,454,364,116,566,170,240,539,650,272,173,374,522,140,3,237,728,686,695,834,654,465,279,400,530,490,241,396,705,638,977,41,580,428,940,358,704,885,344,274,390,395,259,954,111,377,689,219,961,331,81,906,509,554,513,262,421,725,541,830,307,149,301,481,238,158,422,641,601,904,405,248,477,235,639,605,64,93,846,12,721,236,915,285,106,192,357,100,545,720,553,104,546,315,176,139,953,216,634,978,938,594,772,401,872,642,514,426,51,22,456,42,819,950,862,388,883,159,851,9,180,923,912,35,564,984,710,434,972,799,191,836,291,512,963,23,439,122,58,967,588,278,529,267,941,783,644,487,467,648,129,567,485,503,1,742,624,741,72,95,753,121,171,460,214,822,969,856,589,162,731,206,302,350,109,25,472,457,322,97,147,576,360,847,863,412,186,525,325,424,586,699,112,663,75,376,707,756,768,901,510,788,266,519,321,123,184,600,990,746,275,897,874,433,661,125,418,247,179,65,349,61,844,790,163,452,318,948,320,646,406,195,616,962,431,330,57,713,916,909,153,410,688,98,160,556,44,714,582,178,55,808,934,277,136,174,764,521,393,453,511,677,887,737,438,531,127,780,760,896,826,43,676,516,312,709,205,459,309,164,806,362,989,411,786,722,334,169,690,437,145,211,337,225,82,386,101,342,881,859,959,369,220,45,679,466,271,607,152,691,811,347,478,416,585,700,955,31,110,183,971,28,366,332,551,96,19,816,221,293,394,927,595,612,929,130,201,230,94,910,694,740,282,319,838,425,925,784,593,649,572,497,793,693,417,113,308,444,803,354,668,24,627,348,671,623,868,715,957,889,470,975,493,548,69,383,736,791,108,931,146,68,148,696,448,766,583,126,669,702,890,39,2,338,877,665,384,458,218,949,70,343,818,71,575,549,345,526,254,849,570,852,559,491,392,27,365,402,372,329,532,528,102,371,708,398,117,346,26,843,604,998,937,231,752,475,482,743,608,226,314,898,773,474,876,543,446,973,270,483,499,930,118,552,802,269,10,324,674,339,947,436,471,333,895,484,692,894,505,78,213,450,56,423,194,813,351,770,494,578,926,16,177,698,463,765,189,33,352,399,363,997,150,144,15,905,407,880,181,85,188,414,34,135,449,983,801,832,993,209,687,5,839,942,500,462,107,328,603,718,11,727,143,316,232,936,409,673,902,729,666,341,682,579,381,918,821,157,660,289,613,507,659,562,76,7,781,848,777,792,264,224,292,875,79,735,645,982,701,468,678,196,812,869,501,999,382,626,538,193,30,985,824,295,495,74,8,359,939,987,234,313,988,168,520,672,212,132,850,200,154,739,18,504,615,667,657,391,92,335,518,767,441,602,933,187,625,900,367,968,281,684,662,928,996,732,131,20,53,156,986,432,884,745,782,789,640,373,91,952,62,558,199,976,326,419,581,899,560,919,537,222,435,785,618,630,913,886,964,922,873,596,747,415,488,486,17,871,52,882,956,286,932,227,763,733,809,198,893,807,32,175,83,944,257,404,77,443,685,305,744,523,855,599,304,403,779,36,105,90,870,59,681,182,680,14,489,697,757,323,629,385,141,172,40,223,867,217,535,815,260,823,167,943,865,290,284,636,303,166,980,920,555,598,258,430,473,712,67,244,775,833,502,246,255,455,124,776,340,858,730,370,951,911,879,207,655,960,445,611,87,810,155,86,263,892,795,762,571,814,924,670,368,574,734,492,759,88,840,921,256,6,517,748,80,120,853,508,300,841,774,891,577,190,202,84,587,958,935,557,527,534,476,356,866,283,133,974,115,378,845,228,280,38,387,355,276,888,540,632,469,631,440,327,298,239,261,429,442,800,103,647,864,908,703,590,480,683,758,820,50,769,253,628,563,161,787,134,804,857,651,427,13,37,547,591,299,751,970,723,946,408,63,981,268,716,114,771,827,310,854,992,860,835,619,498,229,828,597,0,675,479,750,273,719,119,842,294,287,197,380,506,47,317,389,128,311,805,726,99,635,614,210,565,573,242,496,903,754,151,622,249,4,544,185,620,137,208]","arrowleft","true","0","13","167","1000","[""0053_N1000_K0167_CLIQUE"",""0016_N1000_K0167_NOCLIQUE""]"
"","","","","","audio-keyboard-response","75","57710","0.0-62.0-0.0-1.0","","null","audio_feedback/right/coin01.mp3","null","","","","0","13","167","1000","[""0053_N1000_K0167_CLIQUE"",""0016_N1000_K0167_NOCLIQUE""]"
"","","","","","canvas-keyboard-response","76","58789","0.0-63.0-0.0-0.0","","133","","arrowleft","[449,103,631,729,571,568,21,675,506,204,813,277,614,625,217,33,983,653,426,4,918,254,840,120,346,220,980,744,540,845,649,771,281,321,403,29,695,659,479,409,483,416,261,950,553,667,292,556,786,436,892,607,877,658,897,445,855,970,735,8,486,320,875,849,947,381,874,826,644,864,697,951,413,183,240,115,543,319,728,7,83,89,440,934,931,225,932,741,499,696,188,406,549,895,278,324,996,435,541,850,138,930,510,376,679,31,351,136,245,451,558,536,734,783,169,42,592,886,68,348,432,748,730,637,896,408,901,545,177,759,415,422,704,742,260,843,754,155,444,174,439,662,323,869,307,162,718,512,438,70,750,833,982,919,603,779,873,523,846,920,38,887,772,477,497,682,350,749,795,447,400,154,144,894,338,853,282,309,79,214,186,274,815,75,531,575,364,424,151,893,822,872,661,495,427,141,978,298,463,122,461,167,80,670,830,681,578,994,584,3,171,799,705,802,361,938,446,46,393,944,725,902,597,218,153,632,249,258,94,765,660,146,494,109,133,635,712,41,627,62,965,690,487,508,801,380,35,935,450,294,467,76,58,336,605,241,462,758,651,962,721,557,326,330,152,17,172,829,528,401,352,464,698,847,537,655,145,387,702,976,600,521,157,110,287,210,817,227,757,673,774,612,434,904,280,251,915,6,834,373,454,816,441,866,365,92,198,316,443,960,189,196,746,455,628,979,524,672,881,390,405,392,953,977,884,386,781,105,490,502,532,933,642,790,720,564,32,187,71,671,101,927,370,20,986,885,769,238,761,423,60,907,529,272,911,215,708,23,961,285,559,345,946,585,48,246,808,952,562,856,56,905,811,375,453,396,967,243,724,870,890,858,674,106,517,891,100,358,118,239,148,232,666,650,879,391,344,685,51,910,117,789,865,69,753,192,315,713,104,836,711,84,929,300,180,460,505,340,939,818,602,991,820,565,580,634,693,382,767,299,132,552,50,431,940,221,374,573,921,259,509,301,861,513,773,860,284,548,924,116,471,161,775,733,566,252,572,943,722,334,97,665,554,181,588,273,608,295,185,496,888,156,311,65,195,717,291,488,43,371,805,124,587,250,248,832,694,492,964,796,936,561,957,596,606,231,691,883,645,53,609,514,993,418,780,128,707,111,288,913,909,859,648,353,998,332,87,669,126,363,194,10,223,475,498,481,862,914,955,49,534,90,617,835,412,98,15,176,327,473,93,331,86,610,470,810,604,825,942,398,236,263,129,500,253,66,377,224,945,975,547,271,629,598,395,737,52,798,88,544,478,12,229,2,275,683,484,699,474,678,844,11,630,419,213,73,459,620,27,719,337,428,421,308,878,736,383,613,687,385,776,333,876,949,302,114,535,852,276,303,9,465,751,716,107,5,410,664,414,72,489,595,626,916,906,341,925,710,641,633,519,378,335,684,164,841,158,599,689,457,190,312,476,329,763,563,123,917,44,268,831,636,688,576,430,806,507,357,226,804,912,515,219,150,59,766,823,360,819,732,782,908,992,30,756,988,170,24,747,209,257,342,34,314,567,788,809,797,848,511,812,22,745,624,703,768,504,264,899,787,139,999,842,928,828,954,366,466,165,349,212,137,296,518,551,64,686,709,256,262,824,26,966,119,778,569,589,800,646,854,179,458,974,230,530,752,989,39,619,583,182,404,305,96,266,54,234,389,740,143,503,37,784,269,322,25,325,485,472,222,82,202,193,581,384,680,550,727,616,184,777,369,207,880,867,622,857,237,102,538,402,57,522,968,493,13,0,206,74,692,654,739,16,785,984,814,700,442,270,14,407,898,437,163,283,242,159,205,577,367,47,764,173,714,203,482,113,108,827,706,963,247,208,78,926,972,99,959,539,668,125,420,147,112,794,304,1,480,792,516,244,452,233,731,574,760,570,677,411,290,525,297,168,91,166,956,399,235,359,958,803,987,582,468,36,546,923,542,388,807,433,201,134,293,889,643,469,255,903,586,863,355,199,723,55,981,985,127,45,995,317,81,135,19,211,590,656,142,491,121,310,67,289,339,178,328,267,200,793,579,85,948,560,837,228,701,871,618,676,868,839,738,997,533,448,372,265,755,663,347,973,591,640,425,306,922,990,130,639,417,140,715,175,941,394,647,77,160,743,501,279,362,623,601,971,726,28,343,652,937,969,40,621,638,318,791,286,615,594,18,379,61,356,770,882,611,851,527,838,216,191,63,95,313,762,520,354,593,657,526,555,197,149,397,368,131,429,456,821,900]","arrowleft","true","0","14","150","1000","[""0062_N1000_K0150_CLIQUE"",""0019_N1000_K0150_NOCLIQUE""]"
"","","","","","audio-keyboard-response","77","59791","0.0-63.0-0.0-1.0","","null","audio_feedback/right/coin01.mp3","null","","","","0","14","150","1000","[""0062_N1000_K0150_CLIQUE"",""0019_N1000_K0150_NOCLIQUE""]"
"","","","","","canvas-keyboard-response","78","61095","0.0-64.0-0.0-0.0","","356","","arrowleft","[462,694,362,770,296,758,890,531,12,975,128,103,299,86,407,525,0,715,180,291,64,767,635,774,576,916,807,597,877,275,337,649,378,752,583,969,231,869,708,792,446,276,227,200,124,444,289,802,14,485,194,96,324,754,434,425,258,143,210,395,439,392,492,588,320,996,26,171,169,61,815,855,410,902,810,349,310,911,652,800,41,239,305,744,138,863,363,342,831,948,406,4,482,763,814,745,891,650,285,92,311,243,954,307,290,135,119,511,720,961,159,567,105,897,603,777,269,953,165,256,590,314,947,32,866,370,424,579,246,358,645,433,719,130,88,107,894,915,616,830,418,436,593,736,799,236,546,560,554,272,973,804,993,34,384,639,394,498,381,910,553,885,62,203,336,896,825,577,367,48,223,95,750,561,859,309,465,701,399,373,516,970,821,599,279,860,270,566,733,120,772,396,644,766,52,672,188,737,170,839,609,937,606,641,339,267,739,630,844,981,179,658,391,332,729,680,678,530,812,841,361,300,330,691,17,656,882,713,657,757,483,423,347,748,836,648,870,974,552,388,81,37,761,670,835,220,923,534,651,899,884,857,490,840,254,809,556,544,368,15,871,114,501,318,727,109,42,612,375,781,517,283,488,1,345,464,683,46,431,134,205,190,475,177,76,65,115,808,794,868,664,150,990,496,582,298,163,426,99,988,780,592,230,889,473,25,985,437,548,676,385,559,872,662,412,999,54,798,647,513,329,968,219,909,288,741,751,5,822,832,709,459,328,132,60,38,111,22,28,611,640,771,172,321,13,571,746,53,262,255,755,416,18,376,568,352,833,136,904,160,613,524,784,913,956,977,451,663,580,706,972,983,374,705,938,505,726,646,984,987,360,168,765,622,403,878,493,106,40,520,595,927,776,489,732,880,316,907,443,322,411,468,282,331,280,753,182,669,167,903,441,301,313,240,44,632,796,450,778,785,21,59,323,356,453,380,69,805,357,102,185,196,547,248,892,557,710,372,178,946,292,346,145,244,232,685,688,682,78,104,876,941,905,963,500,661,834,293,100,466,768,541,118,539,529,532,481,455,23,387,684,716,912,235,386,480,259,604,573,533,581,56,7,414,212,274,518,929,764,467,615,992,427,952,30,319,695,144,50,189,73,823,142,229,986,101,725,687,982,631,608,655,382,728,353,148,66,344,962,408,793,355,72,607,817,526,594,738,326,261,828,67,463,413,116,626,218,484,847,420,677,668,278,540,82,673,782,250,629,20,471,494,335,886,75,967,268,74,625,998,864,801,90,901,29,851,154,202,398,743,383,176,68,31,955,589,287,208,922,958,478,514,125,213,257,284,366,71,295,417,155,63,491,201,161,628,448,199,461,618,867,33,721,624,966,422,479,273,147,252,818,476,58,435,129,365,879,503,671,874,689,773,707,596,472,621,565,957,642,976,960,756,550,27,348,924,191,926,350,151,131,509,377,137,198,245,122,638,43,570,237,932,883,995,601,195,681,826,949,241,740,943,919,667,421,718,917,704,226,934,811,36,333,950,146,486,711,113,939,39,508,620,971,133,315,6,371,521,989,11,312,543,674,80,918,734,452,98,914,265,569,602,429,327,853,303,49,173,537,714,555,865,247,933,340,797,679,24,260,545,789,70,234,659,769,945,854,686,438,887,271,351,470,419,849,204,507,166,379,843,965,477,574,221,497,845,994,803,538,697,692,712,653,693,325,617,84,440,83,400,110,575,813,308,951,806,506,405,925,93,762,428,233,354,747,942,94,286,791,158,795,775,197,149,108,522,228,207,409,562,931,127,875,449,634,978,551,856,935,585,152,35,281,389,964,369,619,97,759,837,404,829,51,584,456,123,542,848,699,393,117,654,487,430,445,614,660,126,587,181,206,214,302,787,47,690,183,696,549,19,920,637,536,9,940,121,979,253,873,297,861,816,216,702,779,735,217,139,193,572,852,842,633,643,717,157,921,460,432,469,186,610,364,266,294,77,528,824,898,510,359,623,698,209,838,184,162,495,605,238,535,636,224,749,512,627,317,87,174,447,499,578,16,85,900,908,515,881,504,57,402,586,192,600,91,722,846,153,338,415,723,598,893,895,156,304,519,457,343,8,980,997,788,563,215,341,10,225,222,991,141,474,523,858,55,700,675,527,502,401,827,2,862,906,665,724,888,249,730,786,251,703,564,306,731,112,79,3,591,819,558,390,930,140,959,928,820,89,760,242,742,164,187,442,211,454,666,944,334,175,850,45,783,263,397,277,264,936,790,458]","arrowright","false","0","15","150","1000","[""0006_N1000_K0150_NOCLIQUE"",""0057_N1000_K0150_CLIQUE""]"
"","","","","","audio-keyboard-response","79","62091","0.0-64.0-0.0-1.0","","null","audio_feedback/wrong/error01.mp3","null","","","","0","15","150","1000","[""0006_N1000_K0150_NOCLIQUE"",""0057_N1000_K0150_CLIQUE""]"
"","","","","","canvas-keyboard-response","80","63282","0.0-65.0-0.0-0.0","","239","","arrowleft","[567,883,453,503,330,657,415,383,520,253,351,707,921,397,857,938,478,31,357,986,121,208,563,863,230,599,868,766,654,785,952,229,881,588,781,693,877,225,607,821,211,125,585,777,47,850,69,456,988,336,317,153,151,454,281,216,508,283,591,841,455,517,776,732,46,495,394,700,646,853,418,443,967,38,890,529,659,367,595,287,188,86,899,626,937,479,740,13,677,862,369,25,571,115,871,272,598,817,318,638,678,391,269,909,936,932,293,507,95,616,514,49,679,802,132,51,927,670,977,592,129,948,832,661,174,452,533,805,771,155,739,639,34,934,14,187,926,363,268,346,124,93,84,688,655,827,377,614,387,674,131,774,138,839,913,340,721,480,757,829,835,477,353,294,276,820,966,527,768,708,656,524,169,258,277,555,12,161,183,173,235,50,917,545,980,523,610,916,518,928,242,419,233,590,171,984,231,376,314,756,42,650,464,10,705,547,429,995,222,886,299,202,241,312,956,923,962,901,807,978,963,561,601,787,99,257,522,808,80,701,134,473,502,321,837,370,215,728,328,200,744,826,604,274,788,994,893,691,335,385,772,865,855,189,1,711,487,640,339,378,26,618,939,683,959,491,572,195,465,436,401,484,141,45,898,307,319,713,6,149,613,226,866,861,97,600,249,196,368,56,201,714,682,214,250,170,489,680,148,284,577,755,91,94,689,72,11,459,957,624,726,104,859,116,43,549,535,263,672,207,587,203,696,798,889,976,74,637,537,362,692,338,632,553,158,407,90,649,126,75,500,122,18,432,44,282,892,583,818,450,37,61,825,469,985,958,773,53,71,156,159,872,869,735,625,972,185,422,519,876,754,350,137,716,217,903,308,244,556,648,786,462,60,223,504,39,320,878,764,753,741,437,636,361,360,851,275,801,414,331,388,694,342,819,483,911,727,511,949,2,758,166,333,723,782,925,910,552,354,712,395,703,512,763,247,497,662,316,32,554,237,254,179,982,993,120,426,396,845,812,749,506,163,392,729,822,630,304,145,658,17,875,103,364,265,806,492,259,476,421,239,292,347,306,867,140,942,879,255,191,665,525,950,0,746,619,5,643,485,981,501,147,27,846,634,991,521,79,919,628,884,836,334,540,398,536,28,404,589,205,343,573,54,918,891,441,920,21,558,667,960,897,885,251,197,4,474,416,737,579,645,560,699,451,964,584,89,382,998,690,325,686,59,538,969,717,664,954,641,620,182,907,467,562,23,442,240,311,490,612,608,813,87,915,409,212,718,933,285,430,3,136,719,803,574,896,742,902,602,734,167,375,603,41,979,428,760,844,849,246,642,408,438,24,177,509,530,290,390,629,748,266,908,194,944,873,315,460,992,597,324,930,329,531,611,833,366,968,112,580,96,510,847,947,135,568,210,935,647,228,996,750,204,870,425,780,468,227,534,987,929,575,92,675,681,770,341,548,550,219,615,123,499,70,108,192,224,767,796,997,323,724,565,593,856,297,447,279,256,810,146,894,951,983,475,783,278,946,264,322,386,420,348,725,695,332,795,738,999,765,291,797,752,337,931,761,234,515,792,313,895,854,663,68,139,793,164,359,271,471,48,180,113,117,904,298,990,355,157,852,858,539,302,794,578,209,660,36,800,280,778,144,828,413,168,709,633,33,546,671,213,410,154,150,439,617,63,289,576,496,472,623,111,406,830,466,110,811,458,100,953,35,374,790,733,669,52,651,961,974,516,236,411,160,427,815,296,730,621,402,653,133,882,198,860,29,842,261,596,175,193,528,631,513,486,288,564,30,880,543,186,955,970,405,461,393,463,78,238,470,482,295,300,114,400,586,76,67,384,178,940,779,581,945,791,424,9,965,823,551,270,8,457,900,20,784,128,431,864,668,349,609,380,352,736,444,218,687,804,697,440,706,888,799,834,303,941,412,975,816,906,118,165,243,971,448,582,445,989,759,722,627,57,720,399,107,559,488,762,922,446,273,176,162,542,62,544,874,684,7,389,40,286,105,64,365,809,310,751,262,731,747,433,65,88,635,973,82,98,924,743,199,305,190,745,22,267,181,184,710,532,769,379,327,481,220,685,831,19,715,326,102,16,652,789,824,914,541,843,372,172,676,142,77,81,423,435,381,130,887,245,344,85,848,905,260,301,434,775,358,232,505,605,814,109,644,55,101,345,570,248,840,152,912,498,704,493,221,371,494,206,666,66,943,566,557,119,373,698,606,673,73,449,622,702,356,403,58,106,417,838,252,526,594,569,15,309,127,143,83]","arrowleft","true","0","16","133","1000","[""0071_N1000_K0133_CLIQUE"",""0065_N1000_K0133_NOCLIQUE""]"
"","","","","","audio-keyboard-response","81","64271","0.0-65.0-0.0-1.0","","null","audio_feedback/right/coin01.mp3","null","","","","0","16","133","1000","[""0071_N1000_K0133_CLIQUE"",""0065_N1000_K0133_NOCLIQUE""]"
"","","","","","canvas-keyboard-response","82","65220","0.0-66.0-0.0-0.0","","4","","arrowleft","[824,209,350,810,590,373,174,804,487,524,18,712,628,981,859,683,306,429,898,619,102,862,582,382,692,425,438,367,553,417,934,11,935,404,167,921,309,865,458,646,219,176,362,96,380,986,972,962,923,726,450,317,721,764,969,157,829,541,840,729,704,353,558,910,834,329,941,766,755,1,896,501,464,283,886,540,817,974,495,759,693,535,165,236,394,407,740,261,505,744,90,572,805,912,748,600,19,681,939,63,280,822,104,488,841,557,774,682,983,183,4,938,486,592,410,563,5,124,515,377,76,449,754,610,314,997,281,885,415,88,387,405,911,622,519,185,564,876,521,713,850,290,246,595,560,40,169,538,15,372,684,293,897,992,773,52,581,154,277,608,62,477,27,621,443,446,965,112,69,2,10,466,228,447,323,670,468,32,837,871,718,959,779,437,955,618,303,365,745,739,422,418,24,20,947,907,751,8,98,456,922,645,602,363,799,989,648,861,949,475,531,162,77,797,474,259,864,389,847,67,792,180,81,175,778,920,351,743,299,496,731,181,695,490,247,54,627,796,137,48,421,782,815,575,319,768,60,568,59,709,95,70,178,311,631,61,381,286,342,673,119,908,788,436,21,126,549,204,506,304,182,532,827,717,419,49,662,872,136,940,970,393,741,13,343,41,932,294,665,469,316,548,579,122,647,720,315,359,819,789,589,161,125,567,577,123,186,835,950,455,518,31,278,497,615,361,555,17,114,733,139,544,705,463,785,201,546,442,917,967,191,72,252,245,9,771,636,687,820,937,976,83,828,848,308,842,50,130,706,134,207,384,396,248,193,738,591,284,271,233,556,195,334,520,612,708,509,435,28,86,513,761,856,794,790,833,99,222,46,264,479,471,982,633,688,710,388,356,140,757,605,649,138,881,793,296,267,629,173,742,103,258,914,802,614,508,94,803,634,609,616,502,152,120,749,599,339,826,420,998,767,801,97,596,345,155,352,256,337,215,571,663,179,893,42,657,899,253,234,346,565,335,611,734,678,770,573,357,106,620,225,22,993,257,144,265,784,275,198,148,189,6,80,806,640,656,716,644,891,984,623,737,37,857,170,231,295,111,547,25,216,330,428,545,327,194,457,845,995,133,661,58,56,843,818,269,324,129,586,528,756,958,84,268,426,747,71,852,780,523,227,254,831,961,769,89,470,424,171,331,578,597,672,867,160,552,197,668,625,16,79,239,235,409,507,606,699,242,598,91,945,924,874,925,588,525,220,341,635,35,151,723,364,232,736,145,412,825,310,873,931,47,990,884,237,746,347,930,434,368,988,116,260,473,476,158,459,305,390,853,143,64,863,379,57,272,903,279,366,811,658,701,383,127,266,977,273,526,517,321,117,775,100,460,821,809,241,719,386,919,643,641,783,689,206,453,844,226,691,765,26,772,839,300,664,164,715,894,514,153,270,901,82,205,38,74,994,607,354,860,196,498,208,725,929,202,320,694,813,214,659,913,968,262,946,92,868,55,948,128,933,999,964,7,441,338,445,448,877,576,395,168,707,147,603,569,685,292,489,669,218,905,399,274,900,887,23,440,728,78,978,902,51,159,957,836,414,652,753,516,318,85,391,870,624,302,690,166,203,461,325,991,250,529,263,472,483,626,291,34,574,376,371,987,192,430,889,763,397,700,960,101,671,146,499,714,93,452,500,814,408,14,807,478,855,858,680,956,141,676,653,494,550,336,243,411,539,570,895,660,724,481,674,423,522,654,369,511,735,944,730,68,613,979,213,637,580,677,297,156,465,416,177,795,838,639,0,43,482,800,963,593,554,199,758,752,349,703,510,249,39,3,943,118,632,188,975,642,401,698,75,392,12,230,121,527,462,587,980,326,650,229,439,561,115,221,953,467,107,150,240,108,313,585,604,727,333,378,110,551,787,816,142,402,832,224,711,791,307,33,44,109,630,675,298,971,781,750,559,951,562,427,503,65,536,916,696,904,73,762,375,433,285,928,542,679,651,882,966,211,132,328,666,566,244,400,954,996,217,942,288,29,431,131,537,344,849,533,374,66,398,952,880,223,172,492,87,638,113,808,584,451,282,594,385,238,413,655,883,200,348,444,187,830,403,493,504,312,583,355,432,45,287,777,722,190,480,617,697,915,184,936,30,454,846,322,360,105,926,485,301,530,866,36,851,909,776,875,732,798,686,358,879,927,918,484,491,888,543,251,906,255,890,869,276,601,406,370,289,854,878,512,149,135,667,892,985,812,786,163,340,973,702,210,760,212,823,53,332,534]","arrowleft","true","0","17","133","1000","[""0075_N1000_K0133_CLIQUE"",""0089_N1000_K0133_NOCLIQUE""]"
"","","","","","audio-keyboard-response","83","66211","0.0-66.0-0.0-1.0","","null","audio_feedback/right/coin01.mp3","null","","","","0","17","133","1000","[""0075_N1000_K0133_CLIQUE"",""0089_N1000_K0133_NOCLIQUE""]"
"","","","","","canvas-keyboard-response","84","67145","0.0-67.0-0.0-0.0","","3","","arrowleft","[645,437,931,261,916,879,485,36,867,345,361,733,917,253,167,636,586,189,242,49,44,715,77,400,278,35,712,803,859,948,753,399,638,158,845,849,949,50,977,397,200,695,798,223,546,316,774,286,861,191,129,964,0,838,484,826,326,690,133,587,426,720,31,302,847,446,969,227,182,738,839,476,956,112,689,482,550,564,111,827,442,519,551,354,512,759,635,404,522,840,62,793,15,357,203,657,528,503,30,919,366,256,601,83,755,447,248,537,851,868,900,884,749,576,824,862,386,91,241,852,716,654,434,119,818,106,912,165,984,23,714,374,69,230,860,510,284,425,390,831,553,272,885,34,878,33,292,742,244,347,691,801,898,319,1,393,846,55,748,881,13,144,307,709,965,768,125,138,331,157,525,535,147,349,411,563,893,188,219,269,966,24,338,595,922,541,299,451,413,815,907,408,980,747,843,604,394,634,896,38,743,545,170,543,342,674,777,880,300,882,183,98,560,836,939,619,478,464,88,376,991,76,335,516,988,313,941,163,953,959,509,359,105,556,440,558,501,542,283,151,897,914,547,109,888,255,923,6,344,615,808,555,53,160,42,620,813,722,26,628,711,887,371,652,785,131,773,234,303,277,707,438,971,641,844,334,339,681,669,736,957,220,185,208,427,124,680,909,475,488,936,450,667,666,21,304,296,685,128,172,195,368,584,19,600,761,322,132,963,469,703,51,378,577,725,592,385,864,192,629,288,731,168,750,866,372,164,97,646,982,353,723,842,190,7,435,377,832,672,979,441,193,8,902,350,492,107,70,782,412,811,471,384,90,199,637,978,237,496,421,197,205,797,630,251,789,730,443,58,40,660,976,779,737,225,590,618,724,139,855,729,765,623,428,250,776,721,459,415,668,152,10,557,282,583,800,744,239,502,233,328,530,143,209,67,260,883,169,389,161,3,280,974,20,992,325,12,792,27,891,791,153,497,424,926,365,181,518,444,809,835,216,174,175,221,767,653,276,903,848,588,84,140,544,355,28,549,194,46,392,113,517,945,906,5,150,78,804,814,474,445,101,60,206,145,538,682,176,465,696,48,363,480,108,47,407,66,121,763,622,298,614,508,455,16,677,611,670,500,787,96,609,647,581,494,511,589,312,874,39,995,526,102,658,137,515,728,523,218,675,762,420,758,264,593,423,329,585,416,180,946,467,64,807,504,961,236,997,741,598,548,343,605,82,981,364,215,599,462,929,263,989,928,899,643,970,687,571,370,291,80,73,772,705,766,309,648,41,786,532,708,405,297,314,457,306,822,927,315,367,226,156,921,336,87,171,740,85,853,698,973,214,624,757,790,697,578,498,330,955,958,947,159,506,81,569,876,795,348,794,890,460,806,781,246,285,539,294,481,149,114,154,146,9,486,514,565,212,61,531,356,994,987,699,901,271,463,333,659,701,198,293,45,702,533,582,602,521,254,805,32,932,894,461,453,650,756,290,224,676,123,752,706,869,100,346,186,320,321,432,788,692,29,895,75,816,94,640,727,718,166,920,373,986,340,944,431,281,295,719,217,688,954,633,886,177,734,301,136,873,616,201,799,468,490,904,179,562,262,489,258,820,273,162,265,477,2,540,410,381,127,383,962,935,79,950,536,382,872,875,823,778,317,960,834,858,726,580,857,268,626,59,493,187,567,409,456,854,430,911,889,17,972,92,86,871,266,429,596,418,259,130,406,968,414,99,202,37,403,231,802,473,222,746,655,332,243,925,572,402,933,458,617,308,472,990,116,934,632,665,287,993,760,771,110,673,341,810,566,122,173,520,267,819,148,396,95,704,103,487,850,534,380,257,228,918,204,337,507,892,104,999,608,235,155,662,877,951,570,178,686,745,274,870,210,573,369,275,74,527,796,754,388,783,856,232,837,449,694,14,913,117,983,247,238,529,391,683,656,52,603,751,452,213,57,924,552,196,249,360,841,642,375,524,559,649,358,915,613,639,863,417,422,910,985,115,579,975,780,245,207,311,621,318,323,700,229,387,821,554,126,466,433,770,967,610,118,513,825,68,279,4,22,784,439,11,591,644,351,937,470,952,829,54,419,270,211,561,89,713,310,398,764,627,930,735,43,448,495,905,812,240,769,833,499,401,379,817,479,661,693,865,395,678,671,732,135,664,134,942,252,940,739,828,996,56,607,72,684,362,938,352,71,717,679,606,651,625,998,18,289,491,568,908,612,184,93,483,25,65,710,142,575,436,597,594,305,574,324,631,63,775,327,830,141,505,120,454,663,943]","arrowleft","true","0","18","117","1000","[""0037_N1000_K0117_CLIQUE"",""0065_N1000_K0117_NOCLIQUE""]"
"","","","","","audio-keyboard-response","85","68131","0.0-67.0-0.0-1.0","","null","audio_feedback/right/coin01.mp3","null","","","","0","18","117","1000","[""0037_N1000_K0117_CLIQUE"",""0065_N1000_K0117_NOCLIQUE""]"
"","","","","","canvas-keyboard-response","86","69231","0.0-68.0-0.0-0.0","","164","","arrowleft","[705,607,279,90,340,132,31,680,501,531,879,724,838,455,905,275,385,9,806,393,646,293,182,87,957,522,954,934,937,415,744,438,36,842,912,304,591,922,860,83,956,448,319,927,370,810,118,635,840,309,482,213,784,861,777,301,573,658,169,762,774,817,278,112,874,975,390,140,797,681,469,346,973,589,869,99,462,372,100,256,26,357,200,12,534,307,280,739,437,30,414,742,33,179,703,718,994,558,960,37,814,444,619,623,440,445,156,105,453,336,55,137,544,104,215,770,173,657,180,541,84,938,926,628,250,612,659,506,752,640,533,741,481,23,650,207,729,38,766,790,545,489,863,351,377,562,939,614,63,418,572,398,985,86,725,865,162,779,355,969,556,915,982,85,688,451,999,224,441,832,803,128,748,728,16,348,867,582,291,587,134,391,399,632,901,43,491,891,344,913,345,764,72,122,79,885,952,846,988,622,925,315,352,373,277,750,499,525,115,60,191,651,76,644,598,930,888,114,220,5,430,637,343,594,423,890,577,701,268,13,892,341,53,933,942,654,678,374,359,639,461,431,921,526,96,332,859,152,155,698,50,786,392,129,150,73,796,459,135,454,500,494,511,354,951,603,949,566,804,687,106,702,232,88,317,185,473,168,931,907,538,588,274,625,676,743,768,298,68,262,936,401,435,388,314,584,714,496,322,732,194,660,824,549,900,715,585,338,217,788,212,409,421,979,138,704,371,269,386,186,416,77,977,97,858,716,968,51,45,146,147,760,42,258,457,672,67,751,980,247,675,94,302,413,965,761,713,325,815,436,529,719,142,720,723,932,360,432,844,229,976,663,350,189,953,153,240,552,754,149,210,627,825,920,337,130,945,821,521,819,504,808,990,428,103,601,289,929,611,22,492,708,986,228,798,570,910,151,898,958,507,245,502,509,641,7,205,519,158,74,218,427,470,801,772,116,121,429,849,809,82,300,367,876,834,406,553,378,543,271,700,375,131,484,335,828,835,327,408,383,376,324,364,125,730,600,64,405,15,292,6,557,230,776,328,610,992,93,231,955,829,595,923,568,61,356,282,911,517,756,286,805,580,223,234,468,620,382,523,872,597,265,778,667,165,868,850,450,812,303,199,175,308,198,201,668,647,581,380,763,183,285,139,833,28,950,299,197,17,452,854,653,527,630,609,381,781,733,206,236,710,959,172,782,686,331,944,65,460,721,2,283,542,962,684,571,272,514,673,765,167,488,369,695,288,54,353,807,281,89,263,419,287,163,195,881,270,267,227,615,539,209,674,478,590,841,845,508,244,49,8,652,216,852,21,475,222,599,255,3,605,160,174,424,974,991,847,996,691,109,970,895,665,799,795,110,563,246,486,498,471,334,661,495,181,878,276,184,19,948,80,480,882,177,758,313,856,34,664,170,141,887,329,108,886,144,734,412,740,820,126,897,4,221,696,565,656,559,608,467,726,66,626,555,321,830,107,596,120,789,735,397,870,434,866,70,389,551,483,884,864,320,575,880,400,127,449,528,918,18,420,192,117,530,249,818,252,136,254,621,164,447,14,171,662,706,831,669,524,154,792,857,567,176,396,794,124,561,442,75,202,411,554,995,178,318,48,579,727,513,753,204,10,984,516,642,802,273,214,978,40,238,446,993,58,670,586,32,515,57,940,113,655,493,284,946,426,851,326,264,384,403,443,839,848,71,35,816,62,747,827,56,787,909,536,394,746,813,972,253,98,518,855,59,928,755,157,896,27,964,697,339,145,943,235,295,472,187,310,617,133,941,717,745,402,532,769,564,902,333,707,843,606,260,759,347,775,711,261,569,226,433,497,239,783,583,242,535,916,233,395,971,196,487,793,166,947,967,305,477,296,362,20,877,712,306,410,671,645,463,685,592,966,316,889,505,257,29,503,39,464,159,44,983,342,875,981,148,474,330,439,123,311,92,225,894,379,47,297,490,219,643,208,476,266,520,631,634,899,823,682,24,677,404,997,593,387,312,873,903,749,633,904,987,548,485,737,629,193,365,871,101,458,574,731,773,989,190,366,358,52,826,546,417,862,837,602,624,638,636,547,540,560,95,736,294,924,46,604,853,692,578,25,119,479,363,243,111,425,618,248,757,11,917,550,914,709,102,161,738,188,822,512,771,722,689,998,41,78,919,69,666,908,800,323,510,290,143,1,349,893,649,616,422,963,466,699,576,648,465,836,785,81,791,613,537,693,368,690,883,251,241,935,259,203,906,211,694,361,456,780,961,767,811,679,237,407,683,0,91]","arrowright","false","0","19","117","1000","[""0004_N1000_K0117_NOCLIQUE"",""0053_N1000_K0117_CLIQUE""]"
"","","","","","audio-keyboard-response","87","70231","0.0-68.0-0.0-1.0","","null","audio_feedback/wrong/error01.mp3","null","","","","0","19","117","1000","[""0004_N1000_K0117_NOCLIQUE"",""0053_N1000_K0117_CLIQUE""]"
