"success","timeout","failed_images","failed_audio","failed_video","trial_type","trial_index","time_elapsed","internal_node_id","view_history","rt","stimulus","response","nodes_order","correct_response","block_index","presentation_index","clique_size","graph_size","graphs_couple","correct"
"true","false","[]","[]","[]","preload","0","432","0.0-0.0","","","","","","","","","","","",""
"","","","","","instructions","1","6142","0.0-1.0","[{""page_index"":0,""viewing_time"":5103},{""page_index"":1,""viewing_time"":600}]","5703","","","","","","","","","",""
"true","false","[]","[]","[]","preload","2","6369","0.0-2.0","","","","","","","","","","","",""
"","","","","","instructions","3","15539","0.0-3.0","[{""page_index"":0,""viewing_time"":697},{""page_index"":1,""viewing_time"":127},{""page_index"":2,""viewing_time"":201},{""page_index"":3,""viewing_time"":178},{""page_index"":4,""viewing_time"":149},{""page_index"":5,""viewing_time"":168},{""page_index"":6,""viewing_time"":133},{""page_index"":7,""viewing_time"":120},{""page_index"":8,""viewing_time"":133},{""page_index"":9,""viewing_time"":138},{""page_index"":10,""viewing_time"":146},{""page_index"":11,""viewing_time"":147},{""page_index"":12,""viewing_time"":165},{""page_index"":13,""viewing_time"":185},{""page_index"":14,""viewing_time"":131},{""page_index"":15,""viewing_time"":144},{""page_index"":16,""viewing_time"":150},{""page_index"":17,""viewing_time"":158},{""page_index"":18,""viewing_time"":164},{""page_index"":19,""viewing_time"":154},{""page_index"":20,""viewing_time"":162},{""page_index"":21,""viewing_time"":146},{""page_index"":22,""viewing_time"":147},{""page_index"":23,""viewing_time"":145},{""page_index"":24,""viewing_time"":163},{""page_index"":25,""viewing_time"":156},{""page_index"":26,""viewing_time"":170},{""page_index"":27,""viewing_time"":158},{""page_index"":28,""viewing_time"":153},{""page_index"":29,""viewing_time"":157},{""page_index"":30,""viewing_time"":151},{""page_index"":31,""viewing_time"":141},{""page_index"":32,""viewing_time"":172},{""page_index"":33,""viewing_time"":156},{""page_index"":34,""viewing_time"":155},{""page_index"":35,""viewing_time"":169},{""page_index"":36,""viewing_time"":172},{""page_index"":37,""viewing_time"":163},{""page_index"":38,""viewing_time"":168},{""page_index"":39,""viewing_time"":156},{""page_index"":40,""viewing_time"":172},{""page_index"":41,""viewing_time"":167},{""page_index"":42,""viewing_time"":151},{""page_index"":43,""viewing_time"":179},{""page_index"":44,""viewing_time"":452},{""page_index"":45,""viewing_time"":172},{""page_index"":46,""viewing_time"":182},{""page_index"":47,""viewing_time"":179},{""page_index"":48,""viewing_time"":171},{""page_index"":49,""viewing_time"":162},{""page_index"":50,""viewing_time"":179},{""page_index"":51,""viewing_time"":261}]","9170","","","","","","","","","",""
"","","","","","instructions","4","16793","0.0-4.0","[{""page_index"":0,""viewing_time"":1253}]","1253","","","","","","","","","",""
"true","false","[]","[]","[]","preload","5","16906","0.0-5.0","","","","","","","","","","","",""
"","","","","","image-keyboard-response","6","17287","0.0-6.0","","379","tutorial/task_familiarization_images/part 1/01_N160_K90_cliqueRight_question1.PNG"," ","","","","","","","",""
"","","","","","image-keyboard-response","7","17535","0.0-7.0","","248","tutorial/task_familiarization_images/part 1/02_N160_K90_cliqueRight_question2.PNG"," ","","","","","","","",""
"","","","","","image-keyboard-response","8","18348","0.0-8.0","","811","tutorial/task_familiarization_images/part 1/03_N160_K90_cliqueRight_question3.PNG","arrowleft","","","","","","","",""
"","","","","","image-keyboard-response","9","18722","0.0-9.0","","371","tutorial/task_familiarization_images/part 1/04_N160_K90_cliqueRight_solution.PNG"," ","","","","","","","",""
"","","","","","image-keyboard-response","10","18948","0.0-10.0","","225","tutorial/task_familiarization_images/part 1/05_N160_K65_cliqueRight_question1.PNG"," ","","","","","","","",""
"","","","","","image-keyboard-response","11","19135","0.0-11.0","","186","tutorial/task_familiarization_images/part 1/06_N160_K65_cliqueRight_question2.PNG"," ","","","","","","","",""
"","","","","","image-keyboard-response","12","19564","0.0-12.0","","428","tutorial/task_familiarization_images/part 1/07_N160_K65_cliqueRight_question3.PNG","arrowleft","","","","","","","",""
"","","","","","image-keyboard-response","13","19928","0.0-13.0","","362","tutorial/task_familiarization_images/part 1/08_N160_K65_cliqueRight_solution.PNG"," ","","","","","","","",""
"","","","","","image-keyboard-response","14","20091","0.0-14.0","","162","tutorial/task_familiarization_images/part 1/09_N160_K50_cliqueLeft_question1.PNG"," ","","","","","","","",""
"","","","","","image-keyboard-response","15","20257","0.0-15.0","","164","tutorial/task_familiarization_images/part 1/10_N160_K50_cliqueLeft_question2.PNG"," ","","","","","","","",""
"","","","","","image-keyboard-response","16","20577","0.0-16.0","","319","tutorial/task_familiarization_images/part 1/11_N160_K50_cliqueLeft_question3.PNG","arrowright","","","","","","","",""
"","","","","","image-keyboard-response","17","20927","0.0-17.0","","349","tutorial/task_familiarization_images/part 1/12_N160_K50_cliqueLeft_solution.PNG"," ","","","","","","","",""
"","","","","","image-keyboard-response","18","21093","0.0-18.0","","164","tutorial/task_familiarization_images/part 1/13_N160_K80_cliqueLeft_question1.PNG"," ","","","","","","","",""
"","","","","","image-keyboard-response","19","21247","0.0-19.0","","153","tutorial/task_familiarization_images/part 1/14_N160_K80_cliqueLeft_question2.PNG"," ","","","","","","","",""
"","","","","","image-keyboard-response","20","21601","0.0-20.0","","352","tutorial/task_familiarization_images/part 1/15_N160_K80_cliqueLeft_question3.PNG","arrowleft","","","","","","","",""
"","","","","","image-keyboard-response","21","21908","0.0-21.0","","305","tutorial/task_familiarization_images/part 1/16_N160_K80_cliqueLeft_solution.PNG"," ","","","","","","","",""
"","","","","","image-keyboard-response","22","22040","0.0-22.0","","131","tutorial/task_familiarization_images/part 1/17_N160_K40_cliqueRight_question1.PNG"," ","","","","","","","",""
"","","","","","image-keyboard-response","23","22218","0.0-23.0","","177","tutorial/task_familiarization_images/part 1/18_N160_K40_cliqueRight_question2.PNG"," ","","","","","","","",""
"","","","","","image-keyboard-response","24","22648","0.0-24.0","","429","tutorial/task_familiarization_images/part 1/19_N160_K40_cliqueRight_question3.PNG","arrowleft","","","","","","","",""
"","","","","","image-keyboard-response","25","23071","0.0-25.0","","422","tutorial/task_familiarization_images/part 1/20_N160_K40_cliqueRight_solution.PNG"," ","","","","","","","",""
"","","","","","image-keyboard-response","26","23223","0.0-26.0","","151","tutorial/task_familiarization_images/part 1/21_N160_K70_cliqueLeft_question1.PNG"," ","","","","","","","",""
"","","","","","image-keyboard-response","27","23359","0.0-27.0","","135","tutorial/task_familiarization_images/part 1/22_N160_K70_cliqueLeft_question2.PNG"," ","","","","","","","",""
"","","","","","image-keyboard-response","28","23702","0.0-28.0","","342","tutorial/task_familiarization_images/part 1/23_N160_K70_cliqueLeft_question3.PNG","arrowright","","","","","","","",""
"","","","","","image-keyboard-response","29","24082","0.0-29.0","","379","tutorial/task_familiarization_images/part 1/24_N160_K70_cliqueLeft_solution.PNG"," ","","","","","","","",""
"true","false","[]","[]","[]","preload","30","24156","0.0-30.0","","","","","","","","","","","",""
"","","","","","image-keyboard-response","31","24223","0.0-31.0","","66","tutorial/task_familiarization_images/part 2/01_160_80_cliqueLeft_withFeedback_1.PNG"," ","","","","","","","",""
"","","","","","image-keyboard-response","32","24370","0.0-32.0","","145","tutorial/task_familiarization_images/part 2/02_160_80_cliqueLeft_withFeedback_1.PNG"," ","","","","","","","",""
"","","","","","image-keyboard-response","33","24845","0.0-33.0","","474","tutorial/task_familiarization_images/part 2/03_160_80_cliqueLeft_withFeedback_3.PNG","arrowleft","","","","","","","",""
"","","","","","image-keyboard-response","34","25224","0.0-34.0","","377","tutorial/task_familiarization_images/part 2/04_160_80_cliqueLeft_withFeedback_correct.PNG"," ","","","","","","","",""
"","","","","","image-keyboard-response","35","25371","0.0-35.0","","145","tutorial/task_familiarization_images/part 2/05_160_55_cliqueRight_withFeedback_1.PNG"," ","","","","","","","",""
"","","","","","image-keyboard-response","36","25513","0.0-36.0","","141","tutorial/task_familiarization_images/part 2/06_160_55_cliqueRight_withFeedback_2.PNG"," ","","","","","","","",""
"","","","","","image-keyboard-response","37","25912","0.0-37.0","","398","tutorial/task_familiarization_images/part 2/07_160_55_cliqueRight_withFeedback_3.PNG","arrowright","","","","","","","",""
"","","","","","image-keyboard-response","38","26425","0.0-38.0","","512","tutorial/task_familiarization_images/part 2/08_160_55_cliqueRight_withFeedback_correct.PNG"," ","","","","","","","",""
"","","","","","image-keyboard-response","39","26587","0.0-39.0","","161","tutorial/task_familiarization_images/part 2/09_160_70_cliqueLeft_withFeedback_1.PNG"," ","","","","","","","",""
"","","","","","image-keyboard-response","40","26730","0.0-40.0","","142","tutorial/task_familiarization_images/part 2/10_160_70_cliqueLeft_withFeedback_2.PNG"," ","","","","","","","",""
"","","","","","image-keyboard-response","41","27046","0.0-41.0","","314","tutorial/task_familiarization_images/part 2/11_160_70_cliqueLeft_withFeedback_3.PNG","arrowright","","","","","","","",""
"","","","","","image-keyboard-response","42","27401","0.0-42.0","","354","tutorial/task_familiarization_images/part 2/12_160_70_cliqueLeft_withFeedback_wrong.PNG"," ","","","","","","","",""
"true","false","[]","[]","[]","preload","43","27412","0.0-43.0","","","","","","","","","","","",""
"","","","","","instructions","44","30948","0.0-44.0","[{""page_index"":0,""viewing_time"":3536}]","3536","","","","","","","","","",""
"","","","","","survey-html-form","45","37141","0.0-45.0","","6190","","{""gender"":""transgender"",""age"":""76""}","","","","","","","",""
"","","","","","instructions","46","38139","0.0-46.0","[{""page_index"":0,""viewing_time"":998}]","998","","","","","","","","","",""
"true","","","","","fullscreen","47","41192","0.0-48.0","","","","","","","","","","","",""
"","","","","","canvas-keyboard-response","48","43540","0.0-49.0-0.0-0.0","","1381",""," ","[153,319,385,154,407,284,777,767,305,184,111,752,539,53,944,766,640,946,540,249,742,351,923,101,530,832,526,148,118,971,483,541,183,960,133,492,842,420,610,255,198,768,582,633,657,371,185,348,138,812,26,809,876,801,521,749,868,440,330,221,828,780,144,738,740,92,671,965,326,451,210,805,894,649,147,66,962,313,827,279,390,620,22,718,356,998,642,86,782,264,753,96,297,373,506,772,810,494,283,900,28,711,988,948,165,979,285,857,339,159,163,830,7,817,289,10,41,964,238,549,182,197,881,972,617,62,20,725,228,534,775,945,797,536,769,717,571,49,710,588,629,840,774,581,522,500,705,121,957,818,119,854,258,605,759,744,978,845,335,306,983,376,447,499,761,80,448,528,329,888,916,127,688,925,552,757,792,322,875,573,947,727,758,892,566,577,316,438,981,575,895,831,565,563,357,0,941,105,396,882,460,199,914,952,867,682,750,796,901,533,181,601,596,643,179,872,550,454,613,429,938,224,835,798,959,820,242,403,984,602,401,669,222,461,684,271,410,384,487,77,527,456,169,905,338,778,665,488,31,523,272,884,956,784,913,678,6,128,934,975,360,736,17,72,175,505,203,995,662,421,958,622,75,55,502,989,61,468,304,120,473,288,275,646,850,318,97,715,791,11,562,78,838,146,405,847,312,930,595,909,292,886,954,309,728,213,40,836,889,365,864,50,763,543,314,24,707,624,760,463,722,303,935,650,436,692,125,439,286,814,381,52,188,296,489,510,785,375,621,677,453,134,576,600,276,924,599,538,135,931,790,568,260,513,926,771,992,511,615,201,716,748,406,241,408,400,349,495,852,986,634,712,942,471,321,800,277,51,879,653,713,515,841,476,680,328,168,161,903,15,504,567,932,574,858,746,762,625,136,455,350,843,990,327,107,484,783,607,166,291,885,996,755,589,799,423,8,808,635,572,585,773,452,94,462,273,666,194,81,129,457,592,683,570,239,474,232,155,247,943,593,265,116,299,397,968,922,379,35,108,140,480,114,609,441,987,443,325,399,804,691,352,334,79,899,977,252,966,731,177,655,556,516,667,282,626,844,434,603,873,724,149,508,171,432,714,933,993,395,690,5,378,795,353,719,721,158,280,497,156,663,919,193,950,370,387,246,274,416,747,997,545,130,389,525,48,862,644,235,69,618,233,907,437,689,874,929,126,433,887,21,106,955,419,1,890,821,88,501,479,450,103,310,336,619,208,860,824,904,374,446,470,765,739,9,259,883,822,269,608,514,532,152,231,970,614,555,383,251,139,734,254,681,30,364,344,100,216,708,98,123,240,491,270,579,16,170,616,464,19,896,974,630,584,256,151,652,546,145,561,112,591,639,250,866,637,756,770,702,815,554,68,89,368,551,261,404,411,64,150,535,358,180,117,95,906,898,294,209,670,949,12,67,27,493,465,230,42,829,412,415,732,54,703,686,332,70,897,347,189,664,340,980,743,236,937,160,402,991,115,745,418,893,999,424,393,205,458,656,137,475,961,124,733,636,485,204,779,369,559,363,262,76,267,813,85,856,323,84,281,701,346,337,507,673,59,606,803,308,754,469,167,372,178,200,57,71,87,367,548,878,927,45,459,917,218,627,442,343,362,409,638,18,793,91,141,697,301,709,982,726,675,82,293,14,985,781,674,83,206,723,226,257,786,355,512,583,131,74,382,598,4,36,425,816,628,871,558,394,580,696,623,430,891,380,912,647,113,38,219,46,287,431,342,833,676,668,490,39,102,320,794,531,220,594,604,661,851,863,699,58,142,268,191,911,936,109,685,315,560,951,13,870,486,37,229,244,825,518,422,648,2,23,29,861,498,237,354,730,44,99,467,537,737,176,477,807,695,212,245,482,611,720,729,478,855,427,973,586,612,672,645,700,445,132,215,751,60,578,223,278,837,253,597,63,341,529,317,569,590,834,361,865,187,940,377,449,910,186,43,32,359,641,908,967,811,496,192,345,266,162,195,164,302,391,802,823,417,93,741,776,90,157,976,654,386,481,547,211,735,853,706,659,704,3,392,243,472,311,921,290,190,307,787,660,414,826,143,173,877,994,920,34,466,234,679,33,544,202,694,388,687,939,915,651,928,207,172,953,839,764,104,788,295,248,880,869,658,517,846,65,564,331,196,509,553,631,122,300,298,503,587,632,73,426,56,398,698,819,963,333,519,25,444,428,435,902,849,789,174,806,47,848,542,214,969,520,557,859,110,225,918,324,413,227,524,366,263,217,693]","arrowright","0","0","300","1000","[""0007_N1000_K0300_NOCLIQUE"",""0073_N1000_K0300_CLIQUE""]",""
"","","","","","audio-keyboard-response","49","44854","0.0-49.0-0.0-1.0","","null","audio_feedback/shuffles/shuffle01.mp3","null","","","0","0","300","1000","[""0007_N1000_K0300_NOCLIQUE"",""0073_N1000_K0300_CLIQUE""]",""
"","","","","","canvas-keyboard-response","50","46224","0.0-49.1-0.1-0.1","","450",""," ","[273,668,427,74,716,557,656,288,380,310,883,572,582,500,945,910,802,667,169,351,25,586,669,338,509,935,618,724,939,970,733,790,40,29,918,346,70,946,854,536,197,293,748,796,460,322,95,475,632,857,46,604,625,230,549,184,488,727,382,522,35,426,58,55,41,201,639,130,390,545,392,150,715,449,376,688,274,134,933,162,234,886,478,395,170,594,378,666,119,271,484,468,256,954,342,420,11,684,37,547,558,671,773,905,364,54,417,136,330,66,244,689,202,108,686,31,116,803,844,341,277,579,226,14,751,263,730,630,121,732,227,529,679,2,264,110,422,406,127,203,882,320,447,65,635,269,185,640,538,444,414,400,696,223,644,48,483,649,231,186,985,808,102,725,252,117,94,620,653,757,941,42,312,990,428,701,713,511,97,537,419,553,813,983,349,976,129,308,33,919,712,290,418,158,384,107,368,23,769,142,243,980,289,366,59,570,955,257,407,221,138,965,771,574,356,934,100,506,664,559,564,938,415,1,403,161,149,445,179,693,497,284,431,619,391,178,139,831,609,340,353,99,253,901,829,820,830,815,291,147,846,311,189,851,971,421,168,800,441,754,461,499,962,43,986,240,552,96,908,556,736,247,463,4,810,514,109,62,762,309,39,928,113,272,920,636,692,103,339,899,583,600,88,303,987,318,22,124,251,505,332,80,744,479,77,838,902,734,863,839,503,566,763,495,940,887,208,163,358,81,624,82,662,628,634,761,72,93,627,889,873,968,707,680,385,610,458,504,673,782,922,580,193,457,871,344,638,997,357,487,601,780,470,36,676,944,737,543,85,195,747,894,521,528,700,845,896,327,535,621,591,826,608,852,261,383,793,785,816,381,493,911,906,451,631,998,348,612,245,948,674,603,706,283,276,819,760,220,60,128,187,336,434,881,83,307,875,540,476,325,817,581,350,661,452,265,482,991,75,485,12,753,832,563,114,752,359,775,722,8,372,50,98,30,792,76,87,665,805,143,215,633,977,746,655,801,772,870,818,238,450,106,396,315,328,394,745,989,249,464,862,755,455,690,981,329,961,21,956,623,367,756,141,507,111,643,554,848,957,369,969,791,743,807,337,584,877,951,654,856,660,885,437,924,622,526,699,912,897,319,299,884,577,953,718,770,626,551,442,216,641,523,714,363,405,994,562,144,409,768,120,575,459,259,248,949,198,605,112,211,57,652,151,613,615,678,326,544,352,729,18,814,510,719,717,822,101,943,900,607,171,192,335,711,917,731,932,122,550,565,913,398,993,393,723,568,27,474,855,131,173,596,370,996,489,118,758,373,602,435,642,239,860,432,995,534,375,571,180,588,797,258,501,361,306,721,466,480,694,798,160,333,823,365,508,569,708,735,176,576,209,456,148,188,890,404,759,982,235,517,999,647,659,125,354,973,799,742,663,858,963,952,629,992,167,399,387,786,936,606,204,491,224,278,847,972,316,587,502,433,26,527,861,90,880,697,430,542,217,51,401,776,895,532,63,593,843,916,32,597,233,78,840,24,379,978,827,3,156,821,923,241,270,779,236,140,250,386,573,296,229,345,942,888,728,360,79,298,548,429,595,301,804,175,958,181,237,324,355,67,45,859,825,159,412,6,7,695,133,268,92,232,242,903,726,454,471,806,850,710,219,453,91,533,611,200,926,835,440,749,592,17,222,672,492,153,228,904,766,777,891,496,864,739,824,518,413,849,279,15,646,218,531,975,702,287,191,472,225,519,828,837,842,157,704,670,921,205,423,199,190,86,473,516,677,297,5,295,68,494,866,833,49,19,282,347,788,767,774,397,52,590,10,262,104,709,481,525,486,853,658,207,589,123,377,599,56,438,146,71,255,462,145,16,280,246,294,137,787,865,947,34,213,260,794,650,657,53,465,979,164,539,89,425,477,13,685,411,675,764,784,681,436,443,541,69,424,598,512,132,878,927,964,408,388,513,567,876,266,165,73,314,9,135,313,893,448,321,783,20,691,331,152,879,305,645,530,362,750,498,389,909,874,317,778,402,950,834,616,648,555,811,682,720,304,374,617,898,38,683,988,966,47,929,166,809,285,867,974,300,212,931,115,614,546,172,206,637,177,286,334,836,64,937,520,930,490,914,703,343,687,841,469,765,61,984,872,868,410,915,789,416,323,698,254,0,275,812,84,925,302,869,194,126,892,371,154,561,578,738,907,210,524,439,651,155,560,705,967,196,795,281,28,44,174,960,959,267,740,446,214,741,105,467,515,781,183,182,585,292]","arrowright","0","0","300","1000","[""0007_N1000_K0300_NOCLIQUE"",""0073_N1000_K0300_CLIQUE""]",""
"","","","","","audio-keyboard-response","51","47294","0.0-49.1-0.1-1.1","","null","audio_feedback/shuffles/shuffle01.mp3","null","","","0","0","300","1000","[""0007_N1000_K0300_NOCLIQUE"",""0073_N1000_K0300_CLIQUE""]",""
"","","","","","canvas-keyboard-response","52","48964","0.0-49.2-0.2-0.2","","753","","arrowright","[6,235,590,399,410,345,896,808,850,291,387,931,528,462,804,752,866,632,358,296,400,215,871,114,826,550,405,844,658,267,561,932,51,726,845,148,24,205,50,725,985,198,182,18,936,48,347,514,253,596,423,145,949,945,579,426,988,787,483,199,673,790,559,129,736,786,169,531,950,839,637,189,353,386,560,228,859,568,480,758,569,47,655,723,570,718,903,41,701,90,294,715,510,854,321,239,900,421,270,465,140,698,697,442,741,310,982,957,449,544,402,916,354,396,869,885,208,16,395,547,505,768,86,595,633,605,578,104,641,434,812,626,803,861,537,273,128,312,702,907,546,692,174,132,993,688,268,614,246,269,511,659,771,553,475,612,238,14,759,714,308,249,352,365,141,915,891,106,143,603,756,757,142,383,981,858,895,430,68,372,944,70,204,937,584,751,15,271,592,847,27,307,763,338,96,348,188,816,360,747,843,719,13,28,721,681,952,92,304,9,279,485,852,834,734,977,829,724,470,339,87,19,40,325,484,585,303,879,795,781,943,213,309,523,793,969,187,909,543,488,644,254,159,792,974,124,121,874,486,46,880,59,604,78,76,533,933,647,639,409,886,964,664,202,134,378,883,98,219,524,73,487,419,984,716,574,496,37,180,476,416,336,450,773,117,210,709,983,997,394,102,211,381,911,133,502,833,136,894,227,600,23,445,17,341,250,12,892,712,599,275,764,878,818,627,549,694,823,58,373,206,805,498,103,368,611,56,877,663,856,662,500,463,956,5,60,519,675,306,530,761,258,837,327,876,509,857,179,247,330,772,10,302,342,221,703,813,105,666,929,367,424,406,691,534,508,532,862,920,597,315,369,954,34,286,230,855,84,809,439,635,349,565,82,774,948,601,259,620,640,729,66,674,93,979,81,835,619,186,257,453,594,2,376,324,695,99,422,865,243,556,680,775,234,441,520,901,157,789,149,711,144,112,328,677,849,491,917,95,375,634,158,326,994,80,536,316,567,853,646,97,44,446,437,413,962,4,743,272,650,542,939,625,196,591,810,572,154,817,11,263,955,685,668,925,203,290,481,941,615,912,313,889,923,223,552,404,177,123,193,521,651,401,137,999,262,30,661,794,504,976,115,770,229,197,282,924,224,970,109,201,278,74,558,165,207,113,7,529,653,319,867,83,45,588,181,897,35,660,991,753,22,244,642,893,535,490,200,100,218,539,54,780,992,506,629,111,295,783,322,827,564,444,171,613,168,435,797,33,356,776,233,49,811,43,864,754,742,501,225,420,42,831,317,366,678,299,516,357,427,72,995,371,411,67,52,69,998,935,868,118,232,468,841,798,108,329,967,433,733,162,690,608,665,965,587,389,474,245,919,194,261,657,707,469,636,522,274,332,525,545,791,62,248,593,762,392,493,305,397,828,384,495,150,147,116,996,580,904,905,236,479,814,851,314,769,610,887,222,586,412,323,428,581,166,872,344,987,616,53,890,237,624,799,390,382,289,1,617,241,722,669,163,429,214,978,418,713,65,934,370,385,710,29,696,582,334,686,739,350,63,497,643,846,287,355,699,618,750,554,459,684,415,749,959,748,173,863,379,26,740,980,456,388,598,298,466,39,414,938,951,760,836,557,284,122,802,25,638,209,178,457,120,191,64,971,77,667,538,730,575,151,135,391,32,175,706,185,266,541,160,652,156,507,417,513,960,540,276,672,55,573,602,860,913,806,973,110,609,840,292,494,260,942,467,432,31,832,870,101,195,606,3,301,717,127,164,20,297,448,784,731,676,630,744,906,300,815,986,346,455,881,563,518,821,89,671,88,265,351,875,926,443,796,720,8,571,693,607,283,364,408,961,687,704,947,477,766,566,930,436,902,438,517,119,963,362,359,928,153,473,251,190,152,656,264,848,737,0,192,71,161,36,801,825,958,167,735,842,138,551,333,499,107,975,645,492,882,440,527,767,75,471,777,363,155,515,898,819,482,990,320,628,788,654,146,785,280,38,252,285,335,131,940,953,374,946,361,407,689,807,403,908,778,873,622,489,79,782,85,830,255,125,576,922,649,343,293,460,838,968,451,61,377,170,94,621,705,548,431,755,288,318,311,966,589,921,910,464,454,184,779,231,700,727,631,130,216,452,800,337,139,745,623,458,884,277,226,682,212,220,398,172,648,126,899,732,472,927,738,176,503,256,380,765,989,918,478,461,683,217,555,242,972,425,447,340,824,562,57,670,240,281,91,914,822,526,512,679,820,577,331,888,583,183,708,393,21,728,746]","arrowright","0","0","300","1000","[""0007_N1000_K0300_NOCLIQUE"",""0073_N1000_K0300_CLIQUE""]","true"
"","","","","","audio-keyboard-response","53","49973","0.0-49.2-0.2-1.2","","null","audio_feedback/right/coin01.mp3","null","","","0","0","300","1000","[""0007_N1000_K0300_NOCLIQUE"",""0073_N1000_K0300_CLIQUE""]",""
"","","","","","canvas-keyboard-response","54","55424","0.0-50.0-0.0-0.0","","4570","","arrowright","[201,410,907,694,667,924,643,897,68,474,913,291,872,112,882,87,7,756,300,955,866,812,290,999,852,173,367,144,750,850,48,979,745,685,149,679,677,743,58,403,334,854,752,490,940,182,681,422,472,136,296,555,622,371,686,409,110,220,126,121,375,468,361,33,343,956,945,605,162,703,508,510,566,395,723,485,876,212,904,345,833,199,83,372,885,46,147,237,946,708,332,870,86,575,319,561,315,513,195,792,76,774,880,458,851,471,652,196,659,495,289,264,10,221,558,202,697,383,914,557,282,240,218,45,595,811,855,330,327,571,370,36,936,82,908,646,879,488,942,279,527,641,843,337,549,55,889,604,427,30,716,316,335,285,349,139,404,444,346,820,35,78,531,948,969,930,152,89,844,177,347,505,189,119,865,376,892,133,614,269,768,214,994,704,8,326,884,541,483,669,984,489,804,521,460,591,411,183,760,916,738,734,165,839,684,728,299,344,66,193,354,251,356,515,273,191,680,998,27,853,722,16,592,93,753,578,548,599,440,949,934,26,632,229,266,524,262,477,247,253,382,830,41,562,869,310,577,314,730,612,75,286,958,294,260,322,511,943,476,957,321,687,118,57,91,99,351,590,77,70,219,784,567,923,735,92,146,62,695,275,207,100,390,996,963,739,836,933,213,463,206,909,51,832,636,325,520,701,973,498,104,278,6,387,486,106,123,740,352,200,357,431,731,454,966,962,883,751,576,732,651,799,250,170,648,770,353,638,272,678,42,690,670,639,145,413,529,234,230,481,721,951,503,516,640,835,663,810,925,331,448,775,338,777,115,888,122,184,664,767,519,499,252,449,693,407,675,960,772,674,668,893,302,480,878,231,305,249,607,570,348,512,114,645,238,241,596,164,391,688,706,161,744,455,584,134,619,824,131,502,267,542,533,105,216,397,757,399,263,434,224,179,39,169,623,813,978,814,875,609,741,597,553,795,388,581,153,9,408,763,500,630,773,683,782,842,23,280,469,419,624,157,365,887,917,435,377,710,456,794,424,308,650,974,900,394,172,965,748,138,340,484,707,790,245,192,823,896,80,402,849,428,414,295,537,587,950,453,223,783,705,800,859,101,312,985,204,589,265,539,633,29,360,977,628,927,324,178,350,546,601,809,573,333,911,615,613,736,171,986,5,451,235,384,168,720,791,980,831,71,420,891,594,616,712,226,517,49,935,815,141,215,642,968,560,464,932,328,937,964,912,582,102,886,188,981,304,109,547,24,523,718,989,691,954,50,995,729,111,568,44,205,787,939,154,921,828,159,284,961,268,124,789,873,658,64,618,862,405,127,88,11,906,902,107,392,14,780,320,758,374,306,270,786,148,379,649,631,222,317,386,358,258,197,992,771,905,931,43,611,445,369,501,47,97,530,603,926,4,461,40,366,256,436,406,160,920,857,227,0,610,108,274,137,864,72,363,37,2,805,778,506,538,863,504,545,746,788,625,493,243,457,233,841,385,95,18,396,660,225,150,85,983,125,997,818,598,838,952,246,487,475,928,412,271,311,796,129,90,689,715,634,292,59,662,13,655,31,785,543,556,522,534,190,254,298,837,673,84,140,672,355,462,554,653,482,987,754,81,362,98,918,647,762,692,585,990,257,714,827,389,991,563,559,682,901,203,439,711,398,671,868,466,586,801,564,583,941,430,929,532,156,113,60,821,210,988,167,65,478,283,17,621,765,698,21,644,874,63,798,248,467,429,656,637,526,507,175,54,919,67,130,494,588,309,166,185,761,297,151,400,32,329,580,759,301,877,826,608,426,713,881,819,239,699,15,742,861,187,277,228,401,209,733,341,822,915,797,236,899,947,232,544,323,242,158,194,441,281,432,473,834,726,176,94,719,217,840,552,287,491,416,74,953,12,702,657,393,336,34,459,128,856,551,737,803,629,69,52,155,492,572,479,20,970,890,307,447,993,779,528,96,967,781,971,496,626,755,806,211,368,418,381,25,725,540,208,497,600,135,244,895,373,982,847,536,848,724,3,518,769,470,1,380,845,79,938,425,103,972,709,727,53,666,661,764,450,620,665,627,717,602,894,38,860,163,339,593,747,871,417,802,186,22,514,446,509,898,569,293,676,976,959,975,61,342,303,259,465,808,696,817,452,807,181,858,255,635,132,143,318,180,550,944,142,825,579,793,415,910,313,903,364,846,261,116,617,174,535,120,423,776,288,574,700,922,525,198,378,816,438,19,749,359,867,565,73,766,606,829,56,433,117,442,421,443,276,654,28,437]","arrowright","0","1","300","1000","[""0045_N1000_K0300_NOCLIQUE"",""0033_N1000_K0300_CLIQUE""]","true"
"","","","","","audio-keyboard-response","55","56413","0.0-50.0-0.0-1.0","","null","audio_feedback/right/coin01.mp3","null","","","0","1","300","1000","[""0045_N1000_K0300_NOCLIQUE"",""0033_N1000_K0300_CLIQUE""]",""
"","","","","","canvas-keyboard-response","56","57600","0.0-51.0-0.0-0.0","","284",""," ","[647,959,472,702,335,607,436,184,420,939,125,406,289,859,883,646,81,7,571,319,474,466,513,739,854,176,202,649,674,502,835,578,339,984,52,379,886,4,82,241,433,380,110,798,920,495,846,708,748,967,964,139,21,95,866,120,809,718,270,484,746,418,138,852,567,179,857,37,572,25,508,224,888,988,133,680,283,30,278,719,394,841,906,188,175,10,463,573,421,745,134,383,498,575,124,716,342,171,191,591,98,805,381,803,236,104,369,361,542,477,181,577,897,440,72,27,799,452,990,532,237,117,667,595,485,105,534,681,365,131,501,522,284,34,909,447,177,882,679,751,520,377,643,794,445,220,832,49,427,773,432,478,3,767,665,822,518,273,408,717,458,356,898,291,601,8,506,267,247,465,764,265,232,115,362,802,536,931,272,122,489,210,870,671,328,627,64,706,519,297,630,530,875,162,17,439,373,275,974,128,77,337,701,279,2,367,657,629,553,451,638,895,811,618,670,438,851,589,68,818,979,407,890,146,819,424,576,858,230,38,918,353,106,833,93,244,71,497,970,966,290,321,788,88,921,226,108,487,689,293,505,750,469,221,371,941,482,659,699,419,993,972,503,397,368,987,417,196,217,550,697,894,934,944,113,528,28,142,467,392,14,203,574,756,159,51,662,682,743,529,385,378,245,975,770,213,893,552,435,75,696,980,163,185,747,84,486,626,783,715,631,850,677,804,96,863,479,538,135,109,722,707,599,820,60,865,430,548,490,655,359,855,357,31,454,197,844,768,208,720,58,140,46,132,628,100,251,19,74,304,102,874,366,286,640,323,995,562,737,375,864,412,61,704,856,690,842,393,301,169,354,660,442,295,229,812,80,828,53,6,396,568,905,405,938,206,676,744,156,294,635,167,962,935,496,806,259,862,145,810,692,198,280,673,929,444,264,386,823,885,317,602,922,675,281,570,991,276,955,509,755,249,50,776,158,399,274,695,119,395,69,464,872,587,815,797,861,507,666,231,838,510,333,409,363,121,758,76,911,391,85,877,252,813,760,632,900,157,947,150,15,661,67,525,180,414,349,539,656,729,516,310,101,402,605,705,556,642,997,724,347,537,250,703,586,606,410,193,685,195,22,355,581,481,298,700,817,59,786,227,973,116,785,307,460,299,914,669,83,761,204,731,668,127,47,989,899,239,257,66,5,288,182,0,352,240,721,763,94,777,598,526,787,470,968,300,448,714,459,709,186,65,915,533,784,263,954,612,600,413,343,165,948,338,330,789,924,808,468,329,33,889,999,400,651,315,876,848,173,896,565,201,892,910,70,483,476,54,652,32,112,205,687,723,933,260,653,555,564,597,623,258,796,384,641,1,734,515,44,622,826,790,423,554,461,35,738,39,965,147,114,160,292,511,480,977,925,728,434,712,89,346,524,837,302,20,473,494,87,218,305,583,949,40,126,996,780,189,613,306,830,256,901,608,907,639,209,711,12,904,168,791,178,18,902,345,847,637,23,214,825,778,26,558,992,154,73,78,334,978,958,296,172,376,248,123,634,590,753,563,164,219,285,441,488,443,559,55,843,774,324,981,318,985,426,644,654,620,860,619,97,404,736,149,9,428,986,45,624,523,450,222,370,144,836,36,621,759,930,141,678,504,725,943,960,446,937,950,194,42,271,170,807,633,757,344,908,268,730,322,611,320,814,29,546,453,831,16,732,199,308,155,881,658,845,303,449,946,255,130,455,211,816,616,951,971,401,535,824,592,766,871,982,457,11,543,916,152,246,374,190,615,56,43,200,91,243,765,839,698,103,880,431,772,311,351,540,740,664,266,584,358,686,645,254,228,998,596,932,713,569,585,387,617,609,332,693,422,771,340,557,821,212,549,926,801,398,936,517,945,694,762,691,223,566,593,437,588,582,327,834,425,225,683,471,648,545,650,390,411,238,672,313,879,614,551,963,868,183,927,594,403,636,325,111,514,544,326,952,277,48,867,663,749,282,86,903,733,769,869,57,531,917,741,891,969,956,92,560,242,940,207,456,625,388,610,341,829,235,849,604,561,492,827,62,314,234,151,174,710,13,800,143,309,752,726,541,429,793,853,360,923,416,137,41,233,161,878,727,795,521,90,781,331,754,792,840,580,107,499,24,493,153,579,336,775,253,316,782,79,287,928,961,684,994,312,547,215,983,364,976,216,527,269,462,372,166,491,957,735,512,348,136,261,192,63,919,912,500,389,779,953,382,118,475,99,742,913,603,350,942,262,187,148,129,887,688,873,415,884]","arrowleft","0","2","267","1000","[""0069_N1000_K0267_CLIQUE"",""0099_N1000_K0267_NOCLIQUE""]",""
"","","","","","audio-keyboard-response","57","58673","0.0-51.0-0.0-1.0","","null","audio_feedback/shuffles/shuffle01.mp3","null","","","0","2","267","1000","[""0069_N1000_K0267_CLIQUE"",""0099_N1000_K0267_NOCLIQUE""]",""
"","","","","","canvas-keyboard-response","58","59923","0.0-51.1-0.1-0.1","","356","","arrowleft","[536,499,160,5,763,506,971,571,328,379,25,320,260,730,488,892,419,857,666,924,192,636,58,959,211,656,108,373,628,970,900,650,38,125,981,378,585,61,74,451,52,438,512,356,200,358,17,428,967,407,397,136,888,983,928,845,420,232,296,589,175,787,271,480,154,117,51,665,347,490,34,791,874,84,886,619,455,873,439,944,647,798,226,100,145,918,212,651,217,638,840,354,608,269,941,491,259,169,1,90,312,376,720,502,955,532,584,280,765,515,732,757,288,513,846,931,30,681,590,933,231,433,298,803,454,946,437,138,522,116,535,621,669,458,272,984,799,410,837,162,850,142,189,864,893,657,477,399,834,431,854,238,563,509,760,176,182,292,266,986,235,37,331,802,462,518,606,736,769,808,322,672,843,423,938,441,183,317,572,680,841,180,876,196,195,592,413,299,107,159,671,872,807,307,64,701,687,334,830,950,958,875,249,724,262,425,210,625,750,645,728,996,773,236,390,630,582,906,28,735,596,633,660,412,715,587,788,819,345,600,201,927,851,313,372,997,541,86,366,972,767,330,836,523,55,415,68,33,670,355,575,581,273,882,516,268,891,427,251,752,332,279,252,21,519,790,528,244,161,593,849,910,889,289,227,782,801,148,179,756,624,620,594,663,67,722,510,731,805,230,16,219,323,12,456,551,991,601,617,463,987,257,114,405,577,745,534,741,963,784,498,678,914,978,960,583,649,41,261,597,511,925,855,35,284,152,554,861,49,525,679,546,664,969,548,980,343,713,247,88,285,283,341,404,403,920,82,565,197,153,326,193,948,424,553,615,75,352,360,952,698,860,14,466,923,401,708,7,704,809,337,632,96,567,639,652,842,902,622,158,640,306,80,700,755,716,476,588,240,398,239,751,202,359,693,248,436,723,218,89,626,135,555,508,20,905,370,578,786,610,391,384,170,719,613,105,909,109,23,591,188,381,566,827,194,527,696,635,504,155,797,552,233,614,746,430,812,79,213,453,199,369,835,465,778,163,813,709,917,440,123,560,544,101,483,943,954,468,667,267,484,73,177,124,472,688,780,224,204,543,816,8,965,115,270,858,0,324,255,452,747,128,828,297,775,102,319,50,9,276,947,65,393,710,648,368,342,149,57,936,662,344,203,631,166,95,898,186,349,862,603,229,921,258,702,915,434,364,66,761,374,832,759,729,810,547,187,538,118,63,60,475,695,754,644,91,3,167,151,19,721,562,904,879,122,316,85,789,281,537,894,839,478,414,448,237,890,315,350,291,877,521,99,694,411,949,985,574,926,243,977,206,881,363,653,989,497,482,422,957,966,514,191,18,576,616,994,586,493,753,375,83,421,580,820,823,40,951,831,993,692,304,699,848,346,309,822,916,901,824,42,912,489,604,432,221,215,531,772,705,150,386,964,450,113,684,144,234,717,795,449,335,770,559,339,385,785,748,549,956,697,711,999,800,459,479,382,392,380,361,781,899,492,220,223,602,460,98,310,550,932,445,112,975,81,884,377,146,973,573,140,859,129,779,542,895,501,674,774,887,658,10,396,961,726,207,250,494,205,435,998,119,278,134,974,869,443,110,172,54,264,426,940,599,470,216,29,214,885,48,314,143,529,92,24,293,46,896,78,852,762,517,209,265,387,689,348,962,461,743,505,311,383,804,72,945,609,988,22,77,139,982,568,871,2,707,56,811,706,992,305,275,570,365,500,833,937,691,457,256,556,507,486,979,829,400,844,685,87,371,132,408,540,487,880,526,190,934,655,618,130,930,796,402,676,126,429,141,245,120,758,814,866,838,353,683,533,241,712,282,308,817,853,995,351,818,659,771,157,137,164,388,764,545,76,302,611,254,792,557,793,447,642,394,485,104,766,303,287,897,121,922,111,300,503,530,242,325,131,661,253,473,156,4,738,605,481,703,36,106,409,744,714,825,919,569,340,225,929,718,612,627,94,990,794,740,733,467,520,362,71,471,395,634,69,329,133,737,263,868,646,682,198,942,43,181,31,45,294,184,357,976,725,417,783,865,867,953,863,333,178,734,623,185,442,495,47,469,44,27,446,727,32,168,913,607,673,677,97,327,15,524,93,690,815,939,579,643,318,127,870,903,444,637,564,826,776,847,336,6,496,675,277,338,406,290,228,321,174,389,539,907,103,165,856,878,561,968,654,62,768,558,367,416,806,301,39,13,908,464,474,26,173,641,11,911,742,598,629,821,147,418,686,70,286,222,595,246,749,171,208,59,53,295,935,668,883,739,777,274]","arrowleft","0","2","267","1000","[""0069_N1000_K0267_CLIQUE"",""0099_N1000_K0267_NOCLIQUE""]","true"
"","","","","","audio-keyboard-response","59","60914","0.0-51.1-0.1-1.1","","null","audio_feedback/right/coin01.mp3","null","","","0","2","267","1000","[""0069_N1000_K0267_CLIQUE"",""0099_N1000_K0267_NOCLIQUE""]",""
"","","","","","canvas-keyboard-response","60","62391","0.0-52.0-0.0-0.0","","572","","arrowleft","[564,118,578,660,778,782,72,13,274,970,648,513,615,620,798,396,880,309,617,867,570,512,158,199,940,490,164,863,735,905,952,640,303,714,563,958,200,675,566,561,505,443,339,476,558,535,268,142,264,311,884,697,941,759,743,846,901,440,56,580,451,44,275,497,643,167,61,545,995,130,27,348,337,395,567,733,651,964,795,204,762,893,719,944,811,374,286,475,367,519,507,663,90,233,280,228,533,832,565,162,184,445,891,596,104,942,875,973,807,301,340,748,568,193,485,918,389,779,14,764,896,866,709,431,530,740,51,983,671,435,786,8,190,47,861,692,647,726,242,472,135,551,882,420,154,45,549,425,829,197,499,63,5,450,706,825,324,749,217,373,194,69,231,77,572,188,967,278,588,725,823,147,575,191,562,202,649,644,806,770,259,24,297,249,81,597,471,379,765,892,780,384,483,417,845,145,247,151,23,707,612,456,817,571,220,712,851,659,284,355,763,178,977,169,257,140,256,630,75,279,961,518,579,753,998,760,898,166,943,933,796,787,569,103,553,209,218,66,317,844,843,678,494,335,969,223,723,369,95,28,486,592,306,589,248,211,956,372,980,163,222,830,939,577,801,699,804,685,480,227,857,416,298,136,842,668,916,467,989,70,127,20,555,67,927,326,7,625,9,761,110,433,186,238,957,272,428,54,55,636,515,171,591,138,160,126,210,966,965,975,503,380,702,100,115,368,899,32,991,874,744,477,153,981,137,968,585,330,732,587,179,329,46,879,797,88,978,214,304,700,364,873,235,835,370,321,388,528,474,994,250,434,18,244,93,438,773,621,469,71,0,119,813,319,128,610,785,109,853,26,754,246,195,987,82,646,937,165,457,724,860,57,922,858,117,574,708,522,314,576,102,710,448,608,332,287,229,831,429,992,213,784,101,815,950,935,391,390,698,288,727,2,767,437,305,908,949,633,427,426,953,720,500,19,509,655,713,906,805,322,105,241,501,129,176,402,392,705,695,295,442,606,86,821,960,495,997,793,602,539,616,631,325,316,731,921,113,534,736,626,73,187,604,94,397,415,406,487,312,270,510,657,294,600,478,53,599,855,3,221,149,948,161,777,206,814,887,677,261,672,148,886,424,266,31,462,517,790,504,772,243,203,936,822,64,458,791,506,346,338,854,897,460,181,318,747,637,841,603,676,541,461,196,444,679,931,986,192,401,343,523,208,283,156,833,609,290,715,98,557,15,68,839,394,365,999,378,289,520,877,489,41,776,452,466,812,540,349,985,83,170,87,422,262,328,924,838,650,315,652,632,40,352,809,116,159,638,133,414,584,300,333,189,143,341,693,902,419,21,741,624,755,6,234,667,656,542,923,745,737,356,353,107,932,254,716,881,49,310,903,947,360,308,37,96,645,690,481,536,919,366,614,399,635,358,834,850,418,198,605,393,889,112,123,502,230,58,521,560,410,885,80,122,532,245,182,327,89,265,752,240,954,687,802,1,988,907,201,484,704,971,282,681,654,351,320,531,449,962,680,639,496,686,465,491,750,39,111,993,859,757,722,824,473,398,252,232,739,361,78,492,837,403,177,285,363,691,344,347,912,556,493,543,653,185,618,183,662,868,269,464,146,684,689,236,267,909,17,175,664,441,459,132,124,141,258,840,810,387,168,453,144,291,76,658,794,888,729,718,864,463,381,293,455,334,848,42,260,552,990,601,277,226,688,674,382,554,43,920,870,972,930,516,131,50,547,673,670,33,409,820,180,10,371,273,546,97,342,224,35,862,413,30,514,883,354,951,559,734,590,405,255,803,816,84,890,99,849,982,239,400,669,696,666,529,573,34,446,622,871,894,865,12,595,628,454,694,911,613,538,594,634,4,711,157,511,607,114,963,766,292,910,313,629,544,799,91,856,216,593,92,106,412,537,979,959,661,59,376,524,172,436,769,411,717,847,756,263,946,926,900,984,783,955,550,11,828,336,789,619,125,121,775,527,582,945,253,152,508,430,827,25,134,375,974,150,251,60,65,432,155,915,38,108,526,913,22,468,917,470,682,800,404,423,976,225,421,611,701,895,878,683,876,219,207,758,74,359,738,62,665,525,583,383,781,205,904,872,826,357,323,237,728,120,581,139,751,642,996,331,548,869,928,281,771,774,302,386,16,818,345,407,852,350,212,48,929,85,730,377,447,914,586,408,925,174,742,819,788,836,296,792,768,362,36,703,934,482,479,29,215,627,173,938,307,299,721,385,641,498,598,79,488,808,746,276,52,271,623,439]","arrowleft","0","3","267","1000","[""0060_N1000_K0267_CLIQUE"",""0001_N1000_K0267_NOCLIQUE""]","true"
"","","","","","audio-keyboard-response","61","63394","0.0-52.0-0.0-1.0","","null","audio_feedback/right/coin01.mp3","null","","","0","3","267","1000","[""0060_N1000_K0267_CLIQUE"",""0001_N1000_K0267_NOCLIQUE""]",""
"","","","","","canvas-keyboard-response","62","64699","0.0-53.0-0.0-0.0","","384",""," ","[305,431,817,832,274,131,9,641,969,771,534,740,691,529,751,30,585,325,881,922,658,91,884,185,342,394,616,2,910,136,291,265,555,674,371,241,201,31,612,756,648,10,715,109,428,357,662,125,283,247,397,570,835,41,122,788,18,688,568,355,43,99,944,574,638,190,728,282,82,562,15,924,3,938,713,400,779,382,348,780,656,704,621,377,336,630,383,119,876,214,787,303,116,59,587,706,902,32,293,894,815,326,603,873,745,609,437,359,51,767,374,829,85,789,77,367,139,905,234,968,239,606,888,687,418,92,409,892,444,822,865,33,334,834,528,956,636,734,569,381,886,785,11,318,551,242,439,749,584,926,663,443,230,671,572,931,446,499,6,769,228,0,58,586,78,626,670,576,473,458,954,235,761,947,154,60,980,919,748,882,360,39,455,57,255,290,710,20,864,934,457,639,317,107,176,236,792,70,309,212,311,959,379,124,945,4,365,522,5,218,725,140,186,850,643,80,492,520,270,295,105,747,470,231,69,17,216,112,71,949,23,727,960,166,106,819,614,489,988,746,723,262,337,450,486,605,345,874,83,858,540,818,435,982,130,219,557,332,411,29,175,866,159,266,977,577,682,384,705,485,501,369,657,22,896,64,427,356,221,53,467,940,770,786,827,333,565,376,447,121,750,117,541,766,488,256,632,441,160,816,573,281,395,781,238,916,773,380,461,97,583,759,566,889,836,401,373,44,67,901,714,599,271,841,699,506,28,222,862,183,890,253,844,466,640,352,582,296,880,802,477,578,128,845,607,592,986,258,65,524,672,480,768,861,372,652,341,724,790,526,163,588,115,421,320,204,319,694,340,503,484,654,608,396,451,782,842,89,950,211,27,512,553,806,164,752,210,375,920,511,843,679,927,284,323,47,189,153,647,514,370,170,659,208,859,885,193,150,803,87,615,797,729,260,233,56,736,809,971,900,37,996,331,515,791,268,709,891,755,349,646,207,103,718,811,416,40,543,141,152,545,762,525,912,245,547,402,618,267,96,246,198,168,689,459,596,16,292,510,795,507,730,75,149,25,726,754,465,552,853,142,147,619,52,533,272,98,680,321,685,877,597,951,316,108,839,478,344,426,7,505,598,660,628,955,137,474,989,496,917,135,280,579,425,637,925,784,429,449,523,985,448,205,393,126,600,192,893,464,992,285,264,554,610,456,430,838,392,157,692,664,194,195,700,690,453,217,620,530,167,261,990,542,857,903,962,417,424,698,213,808,433,419,517,171,870,633,146,243,364,537,335,404,301,907,833,406,224,491,513,277,225,678,594,462,196,250,493,764,101,717,953,518,354,95,403,758,979,385,856,716,642,964,590,286,820,778,134,308,521,398,799,629,549,851,389,743,343,535,21,627,872,399,976,145,733,353,500,346,826,946,760,483,958,703,476,972,852,701,133,516,72,49,104,909,921,288,252,708,644,676,567,350,556,757,386,519,178,793,942,471,113,823,508,269,259,611,299,254,997,575,738,558,300,974,420,772,182,923,94,494,123,897,559,813,169,358,739,930,943,721,179,436,625,76,495,957,623,100,8,948,143,50,697,90,918,452,102,973,181,933,776,952,941,617,93,593,463,604,798,863,63,312,970,197,831,932,302,88,438,731,172,983,278,62,490,251,237,975,775,939,686,887,232,158,821,127,223,675,227,624,322,527,875,504,408,244,722,564,220,544,967,73,460,46,81,324,653,188,631,753,306,602,645,683,391,14,378,215,991,129,765,174,589,405,650,440,156,445,366,840,410,475,48,330,407,257,327,328,177,287,200,13,249,741,871,151,362,289,737,732,482,203,914,763,966,546,111,55,191,810,961,807,867,847,68,229,12,118,837,387,899,1,273,469,412,138,187,148,998,206,74,814,413,744,548,669,310,677,86,304,898,42,805,742,906,878,338,35,965,307,661,800,536,54,869,801,180,908,994,61,825,560,695,422,666,155,313,162,794,294,693,390,132,415,161,414,883,904,595,432,539,684,937,601,110,696,987,498,45,279,707,538,423,681,913,581,276,868,315,774,804,895,532,26,571,329,830,550,963,298,36,591,114,995,79,812,481,184,796,561,472,712,479,66,655,854,702,824,911,667,929,915,226,34,347,84,563,454,828,651,783,240,673,848,668,849,368,487,502,735,199,855,719,999,314,711,24,879,144,928,509,275,248,981,497,361,202,434,263,846,649,120,531,720,935,38,613,19,635,634,351,339,665,363,860,388,173,936,978,984,165,993,297,442,209,777,468,622,580]","arrowright","0","4","233","1000","[""0028_N1000_K0233_NOCLIQUE"",""0024_N1000_K0233_CLIQUE""]",""
"","","","","","audio-keyboard-response","63","65774","0.0-53.0-0.0-1.0","","null","audio_feedback/shuffles/shuffle01.mp3","null","","","0","4","233","1000","[""0028_N1000_K0233_NOCLIQUE"",""0024_N1000_K0233_CLIQUE""]",""
"","","","","","canvas-keyboard-response","64","68123","0.0-53.1-0.1-0.1","","1522","","arrowright","[647,732,149,127,287,1,117,622,454,324,210,317,993,70,384,132,719,843,262,466,72,816,969,629,924,562,169,67,273,224,520,689,683,190,633,997,158,478,295,304,31,329,476,801,86,183,500,374,186,257,122,901,866,910,119,925,372,713,81,939,523,489,189,431,105,831,218,635,361,963,284,250,922,740,888,19,766,26,553,28,174,62,392,764,267,820,898,506,926,20,609,435,182,893,949,172,2,936,48,434,341,221,710,0,211,334,517,527,279,872,956,457,432,354,577,749,344,613,46,180,543,246,362,340,402,302,571,460,491,996,631,178,862,79,815,986,786,770,365,30,78,623,486,870,73,947,885,661,333,692,179,978,583,728,459,826,55,335,754,799,640,232,877,161,237,611,660,774,804,88,522,269,705,346,864,407,581,791,915,721,701,153,652,913,572,720,260,400,767,318,511,673,709,49,82,752,451,687,106,670,430,275,904,345,229,658,718,700,706,510,906,585,665,735,857,475,729,909,549,369,750,603,327,990,784,50,141,495,602,107,641,156,177,546,630,967,321,139,56,395,812,642,499,381,751,208,514,604,940,426,964,769,351,129,657,3,413,166,927,40,8,388,61,548,228,23,765,226,96,797,655,803,11,467,600,292,254,196,726,777,310,813,860,352,693,220,502,319,907,800,930,276,934,154,992,757,663,452,202,285,952,756,111,821,762,315,331,234,695,835,144,664,739,415,823,147,95,128,9,599,240,307,788,101,559,628,753,198,490,874,5,919,261,94,197,283,7,891,496,745,258,494,215,52,824,526,199,829,833,712,306,529,472,469,923,108,375,911,242,118,312,170,817,299,509,890,715,71,999,35,608,646,654,414,832,614,627,373,696,818,455,353,424,854,528,157,886,44,389,589,850,865,411,253,243,303,645,15,586,960,746,651,882,114,569,465,125,453,856,219,185,151,493,406,966,859,531,676,423,193,336,659,14,542,605,858,64,550,738,249,574,638,421,171,448,97,244,37,588,463,474,438,225,848,948,360,566,217,363,861,961,34,876,471,897,905,412,755,512,93,322,449,737,782,846,516,238,313,176,397,145,853,461,534,433,152,998,328,686,601,736,265,545,981,212,116,123,418,892,760,148,263,822,811,445,598,920,653,704,437,498,937,547,425,441,724,207,921,481,184,462,931,587,576,133,727,130,316,944,895,768,748,173,849,376,194,814,367,836,505,962,136,883,564,74,227,436,958,632,195,24,403,422,619,929,386,896,27,308,691,89,401,126,593,819,109,297,847,277,983,348,84,398,519,733,338,716,917,256,68,393,63,617,10,259,772,938,357,852,868,456,12,271,102,91,699,142,54,38,942,606,995,884,113,894,213,763,230,41,447,251,497,223,278,681,339,301,387,241,787,75,975,597,473,793,192,298,970,464,427,953,873,612,104,272,825,918,371,903,138,326,175,419,33,851,408,380,644,758,532,796,417,440,405,982,971,13,759,621,233,987,722,146,618,291,808,650,668,794,916,488,679,592,58,828,410,845,725,396,18,912,112,77,620,163,160,555,554,479,871,830,582,596,781,383,977,305,300,444,802,83,487,626,332,87,678,743,780,779,607,323,863,570,844,45,694,205,143,355,92,140,325,53,578,484,807,290,610,503,541,216,968,685,842,879,309,159,778,280,946,429,296,714,649,204,551,468,235,616,350,783,928,669,643,834,85,887,533,281,32,399,236,191,120,167,416,162,231,521,841,368,980,636,293,637,137,590,222,974,579,391,899,869,100,595,838,247,773,90,404,707,776,358,507,248,563,809,908,477,428,66,867,957,677,839,286,941,984,214,22,482,798,734,594,504,513,556,330,805,377,443,535,742,771,935,672,889,311,98,359,470,539,155,289,385,688,134,880,439,656,954,25,703,288,51,634,4,573,731,561,711,697,680,131,181,187,639,789,364,552,266,379,747,557,60,840,648,591,124,985,806,394,390,900,99,878,294,39,524,382,536,580,255,690,282,16,624,744,17,150,538,59,698,959,565,584,684,785,442,537,320,902,560,790,965,991,674,206,485,558,950,530,200,121,165,810,203,951,708,775,356,662,682,409,29,314,702,988,933,80,420,979,567,875,972,943,625,575,667,501,483,881,347,135,723,480,671,675,252,446,792,47,989,717,239,343,761,349,115,168,57,370,188,366,378,342,540,544,730,36,69,164,492,795,741,110,508,337,201,973,42,65,245,615,666,21,518,103,827,932,268,209,976,515,955,274,264,458,76,6,525,855,43,270,837,450,568,994,914,945]","arrowright","0","4","233","1000","[""0028_N1000_K0233_NOCLIQUE"",""0024_N1000_K0233_CLIQUE""]","true"
"","","","","","audio-keyboard-response","65","69114","0.0-53.1-0.1-1.1","","null","audio_feedback/right/coin01.mp3","null","","","0","4","233","1000","[""0028_N1000_K0233_NOCLIQUE"",""0024_N1000_K0233_CLIQUE""]",""
"","","","","","canvas-keyboard-response","66","70541","0.0-54.0-0.0-0.0","","531","","arrowright","[602,432,323,275,653,147,298,160,61,12,818,713,272,633,811,998,891,570,356,482,492,300,837,115,216,839,478,731,344,640,297,508,903,619,178,684,404,743,202,81,33,518,852,251,930,908,108,916,650,461,831,170,128,281,869,967,42,521,629,760,114,980,689,745,324,703,851,766,310,962,624,647,975,469,144,920,224,725,250,768,411,243,594,219,490,501,912,765,407,856,830,691,427,744,724,351,600,262,8,950,226,618,590,892,497,473,122,34,330,825,924,425,458,529,445,360,475,52,794,726,32,53,433,76,168,576,495,443,758,775,302,918,409,204,379,166,284,185,499,564,693,328,987,546,210,986,882,332,568,873,295,109,188,917,549,25,92,96,742,104,278,834,484,208,870,671,959,205,719,824,948,532,816,799,603,130,339,697,883,131,553,591,982,474,354,525,764,542,207,528,705,270,934,118,894,329,886,646,627,843,734,428,605,769,331,919,739,177,667,194,472,322,439,707,201,255,793,273,430,71,148,996,879,228,860,39,299,900,311,685,516,728,596,10,990,117,708,347,945,213,112,236,187,563,276,796,829,636,384,588,308,721,826,416,173,398,922,550,3,773,536,146,65,294,866,531,406,307,200,139,817,520,99,695,381,994,237,692,665,881,454,907,995,901,669,942,196,702,7,26,376,730,489,290,269,712,241,654,176,203,581,984,154,45,274,674,258,943,362,334,938,80,840,388,221,289,543,125,316,494,784,539,672,215,268,835,645,86,710,390,658,189,85,953,23,5,751,735,120,333,317,441,688,941,575,403,878,389,608,315,909,774,348,359,510,554,337,420,240,60,263,28,655,44,888,304,782,366,195,370,423,326,807,936,853,787,875,552,50,374,345,137,613,644,143,649,417,129,911,67,211,496,729,172,561,714,303,318,992,246,231,476,190,963,747,560,320,997,382,750,111,35,217,159,648,505,871,477,83,849,969,601,643,72,378,961,960,841,180,245,607,523,391,415,464,763,103,17,572,512,57,136,249,515,592,586,827,513,970,952,483,116,547,738,301,459,431,522,197,355,944,927,718,386,820,13,846,777,931,757,259,578,291,385,687,819,51,338,6,419,595,686,899,993,102,679,225,191,557,49,412,418,779,910,40,218,781,162,132,913,615,346,785,14,842,538,540,701,761,565,38,717,90,932,551,448,214,867,509,545,964,847,413,723,271,15,260,606,235,488,630,921,267,82,805,77,663,642,752,524,48,947,105,925,778,309,848,792,383,999,456,242,949,776,340,47,21,335,593,312,327,632,753,141,184,113,756,791,983,609,261,408,965,435,325,868,696,806,123,106,73,904,94,694,755,914,675,349,100,772,809,371,37,821,611,447,468,749,798,440,167,357,375,157,442,858,232,399,676,392,54,254,502,0,405,574,656,363,16,93,788,451,704,206,614,175,896,220,759,480,957,91,933,230,966,296,736,628,387,361,939,450,810,527,657,98,877,421,754,641,905,558,746,285,46,101,823,27,336,186,571,979,169,142,579,256,436,135,321,247,635,556,800,802,637,541,720,133,424,288,876,395,519,890,770,616,266,149,812,670,286,401,711,651,680,422,282,748,978,252,364,62,248,279,358,991,838,767,898,864,732,569,127,380,559,165,22,786,857,84,850,622,727,479,808,29,280,956,446,244,212,319,444,733,222,394,163,534,155,59,639,161,548,24,789,533,410,929,935,737,668,587,865,88,460,928,625,780,470,504,487,498,844,880,471,453,134,158,227,257,265,709,887,223,677,452,287,119,555,814,350,740,455,741,238,889,365,972,973,895,68,369,861,872,434,530,78,485,352,293,31,915,145,699,426,700,577,582,562,722,971,393,253,797,20,771,955,63,977,664,2,638,457,107,183,683,859,314,511,937,940,234,989,341,580,264,583,138,140,631,855,537,150,74,951,906,486,783,884,833,652,678,467,828,813,661,968,500,377,662,182,626,503,402,19,506,87,863,716,599,946,926,110,233,43,954,179,566,9,526,832,171,373,437,822,617,862,239,367,681,893,164,152,673,305,79,698,400,199,923,75,958,283,343,198,36,874,481,988,1,620,706,589,342,429,507,11,815,976,666,397,621,845,4,462,465,18,156,97,174,124,535,517,610,153,974,126,151,801,414,604,70,804,55,192,514,795,193,306,292,690,985,573,854,634,612,660,597,69,41,209,353,790,544,368,277,58,121,715,493,682,56,64,659,463,491,598,449,981,623,803,95,30,584,372,466,885,438,897,836,66,902,585,313,89,229,762,567,396,181]","arrowright","0","5","233","1000","[""0012_N1000_K0233_NOCLIQUE"",""0094_N1000_K0233_CLIQUE""]","true"
"","","","","","audio-keyboard-response","67","71534","0.0-54.0-0.0-1.0","","null","audio_feedback/right/coin01.mp3","null","","","0","5","233","1000","[""0012_N1000_K0233_NOCLIQUE"",""0094_N1000_K0233_CLIQUE""]",""
"","","","","","canvas-keyboard-response","68","72457","0.0-55.0-0.0-0.0","","3",""," ","[228,911,951,12,14,31,844,606,940,164,218,467,894,97,647,955,670,107,319,953,394,350,165,527,716,321,324,731,492,599,801,885,987,284,822,419,566,830,203,383,90,246,842,42,874,561,671,154,313,588,408,247,443,93,182,22,715,24,311,617,719,522,146,654,374,952,521,558,689,834,752,297,150,71,816,179,192,504,643,314,520,901,131,975,450,89,896,201,584,780,227,779,777,900,301,793,644,425,736,429,570,468,365,721,850,741,855,320,709,389,262,326,250,587,142,861,102,278,256,968,7,969,902,966,530,792,441,172,357,880,289,500,103,234,794,633,856,738,583,296,325,327,567,646,232,62,843,204,199,980,960,122,989,631,550,538,167,913,367,259,453,465,451,223,829,958,601,767,774,211,4,384,332,597,118,734,427,578,358,135,309,294,569,33,756,151,971,454,511,432,277,572,210,559,814,515,735,315,437,2,863,99,676,479,55,760,942,125,3,275,229,982,257,761,540,338,999,803,768,642,95,974,620,875,392,581,755,316,221,748,424,619,712,52,109,544,776,657,529,513,178,905,681,333,285,364,873,447,216,691,846,590,449,291,306,859,371,84,693,704,825,929,386,757,20,784,949,824,60,308,239,70,495,170,422,941,292,701,831,474,214,351,400,612,409,293,120,322,132,222,759,928,144,94,344,854,820,986,517,244,649,269,970,943,995,300,191,253,298,75,202,483,354,876,523,677,497,771,862,356,469,235,585,866,810,63,580,560,272,871,983,961,499,411,43,836,478,197,147,717,486,482,860,124,475,557,627,700,751,565,410,255,658,518,747,355,330,61,602,978,839,903,353,463,833,629,618,628,88,773,464,273,366,589,433,329,219,673,656,304,403,770,732,648,805,506,78,853,933,547,877,401,481,405,915,992,711,360,632,788,108,123,998,808,886,434,106,519,473,782,343,100,906,153,252,730,634,113,827,242,398,959,678,263,957,869,534,802,87,493,710,480,749,69,295,498,494,733,373,286,899,128,290,416,740,236,598,26,18,508,895,582,318,690,548,307,947,349,459,225,28,105,181,783,614,610,183,726,574,206,965,936,46,973,539,737,471,65,110,363,706,797,661,488,750,74,44,837,143,722,138,687,209,472,714,51,981,694,413,638,781,786,37,626,254,431,739,50,335,420,462,415,48,299,265,54,898,985,215,729,17,708,865,460,811,963,396,19,967,813,653,668,276,879,359,171,925,271,261,939,457,927,161,575,713,635,117,66,762,659,809,595,945,200,832,817,303,279,932,196,414,368,815,697,380,399,404,991,688,838,129,340,162,684,923,754,806,35,83,962,141,556,268,445,660,159,976,666,16,379,979,8,579,662,213,637,699,372,914,220,345,910,264,621,208,387,346,496,168,29,233,919,937,49,140,769,826,402,930,86,674,812,667,639,872,938,724,158,892,549,946,789,287,176,889,576,542,608,931,926,38,127,857,988,241,972,393,466,1,347,790,461,922,186,553,909,388,604,184,744,230,505,436,625,114,282,524,426,98,406,59,847,884,577,848,487,765,217,361,525,864,258,745,921,270,417,763,407,543,251,317,535,82,692,728,305,675,888,669,243,440,718,484,650,573,134,23,267,663,586,328,904,76,818,412,240,758,531,224,908,916,177,476,25,101,509,607,21,703,423,536,819,169,555,136,514,870,702,917,764,249,283,5,385,683,705,237,310,623,145,180,552,73,435,541,376,796,835,795,868,188,166,851,395,187,116,341,58,448,852,720,685,92,551,742,79,993,503,841,636,526,458,397,248,883,9,821,997,81,438,312,53,698,772,452,137,655,611,696,190,528,571,207,664,686,381,173,615,390,934,920,418,45,891,334,964,645,57,592,600,288,6,195,231,840,867,175,491,723,238,746,378,944,490,430,15,41,665,640,342,918,897,245,193,823,554,130,112,804,616,302,337,174,485,502,893,13,152,444,651,695,85,157,0,185,624,994,274,532,260,370,507,56,47,881,890,956,977,111,828,545,807,377,64,439,189,369,950,605,791,96,348,727,564,68,36,596,139,266,533,984,510,442,912,39,622,568,352,887,323,641,845,787,537,382,163,67,91,339,907,996,546,226,562,707,104,160,594,672,954,428,990,766,77,72,455,799,10,149,679,80,800,725,34,501,630,27,775,32,30,798,785,591,878,924,362,11,613,40,470,198,593,609,652,456,882,489,194,858,212,126,119,156,281,133,391,477,680,603,121,205,148,512,778,375,280,115,753,563,331,336,446,743,155,421,682,935,516,849,948]","arrowright","0","6","217","1000","[""0086_N1000_K0217_NOCLIQUE"",""0037_N1000_K0217_CLIQUE""]",""
"","","","","","audio-keyboard-response","69","73534","0.0-55.0-0.0-1.0","","null","audio_feedback/shuffles/shuffle01.mp3","null","","","0","6","217","1000","[""0086_N1000_K0217_NOCLIQUE"",""0037_N1000_K0217_CLIQUE""]",""
"","","","","","canvas-keyboard-response","70","75158","0.0-55.1-0.1-0.1","","698","","arrowright","[933,668,728,795,792,875,45,866,116,710,46,802,616,442,175,32,13,829,861,234,4,742,722,257,93,513,402,930,118,613,96,596,915,247,697,623,942,972,43,690,492,378,131,607,625,16,823,317,339,595,376,364,698,790,138,503,615,705,691,236,311,177,445,229,485,11,59,394,856,412,775,99,162,981,161,813,579,71,487,826,750,589,258,17,713,220,805,921,996,249,181,392,860,390,687,822,744,952,218,286,682,203,870,419,658,914,241,898,173,892,865,880,770,715,976,901,431,649,326,644,312,801,6,894,306,598,193,712,719,353,932,121,721,882,727,433,154,0,338,180,998,711,296,887,454,730,354,313,748,988,630,33,810,886,371,18,367,185,793,386,35,522,966,379,470,858,931,716,739,663,90,225,366,555,79,951,383,809,459,974,699,674,779,891,940,694,828,493,859,120,537,448,964,491,330,72,360,609,559,848,745,346,401,774,509,86,923,140,787,251,361,766,105,611,504,984,280,321,60,437,937,679,527,908,651,224,675,839,920,207,652,707,671,767,997,198,808,883,344,237,842,114,438,643,667,552,656,791,19,262,677,388,228,404,430,452,100,349,534,900,916,469,913,50,533,365,776,384,683,56,293,904,129,271,617,759,263,782,726,888,456,137,586,723,98,148,907,427,853,441,222,5,511,300,570,838,94,85,288,999,407,620,941,125,747,772,29,275,817,661,123,684,953,943,405,396,136,919,965,825,890,975,155,765,614,304,49,521,760,543,783,381,539,636,455,463,472,63,717,628,279,227,192,156,252,284,106,150,563,807,830,518,256,399,955,205,167,516,297,804,884,869,22,752,725,457,348,480,443,160,31,135,377,318,960,925,132,910,520,483,231,61,639,899,843,872,495,600,409,541,638,588,949,957,987,141,233,476,704,74,519,724,756,548,768,490,895,83,9,601,328,303,210,700,786,670,637,73,168,738,980,962,484,935,92,939,439,474,990,619,478,506,837,928,416,163,158,803,373,449,104,200,634,560,877,720,166,270,610,319,169,578,994,498,37,460,217,605,834,575,608,219,103,38,340,532,551,88,794,784,336,642,482,562,126,653,418,798,618,1,382,357,28,568,689,855,327,253,797,3,566,831,287,832,351,453,434,178,922,115,176,978,421,199,322,947,785,874,242,561,746,706,408,788,184,912,657,857,112,862,868,34,347,429,820,174,557,546,733,893,424,277,182,15,143,627,659,58,75,525,274,547,873,549,696,36,97,195,606,542,597,332,309,702,688,970,283,213,451,678,189,950,295,359,718,356,714,423,524,529,254,993,362,545,149,202,14,108,669,153,903,556,10,464,64,310,109,260,255,812,911,517,985,934,65,337,20,676,2,944,40,789,983,771,508,331,732,878,223,847,370,211,743,368,298,477,355,187,24,341,526,612,281,664,269,982,660,119,850,863,501,7,773,564,650,530,84,69,316,648,585,447,816,411,986,523,214,468,475,938,342,954,240,735,488,276,292,26,731,369,924,958,89,550,159,665,62,971,333,164,531,558,350,685,291,389,139,486,854,314,672,473,758,66,489,179,673,754,811,633,666,171,936,268,57,708,471,78,335,889,592,278,536,626,101,117,334,465,845,494,736,692,261,769,42,204,432,909,76,201,380,82,395,212,505,47,44,70,188,30,80,583,272,250,814,896,587,68,763,815,867,165,751,959,172,622,819,603,345,635,95,538,145,946,23,358,307,499,146,444,753,540,737,8,51,799,232,305,216,479,662,397,41,593,800,604,496,512,515,248,918,324,122,968,266,244,590,436,500,410,577,796,39,152,599,467,963,209,989,833,267,572,510,701,846,580,285,157,591,741,762,110,186,67,81,695,647,462,906,372,208,440,194,27,624,621,282,640,992,991,147,956,102,655,897,849,755,582,191,245,553,302,761,544,417,567,528,777,573,945,602,352,734,821,55,246,703,851,91,584,571,52,87,414,481,393,948,461,308,406,879,400,905,77,197,574,871,632,374,435,413,425,323,827,581,183,133,343,864,299,273,466,446,507,969,385,680,554,215,497,190,514,239,130,645,294,709,740,458,631,565,221,917,977,535,885,686,387,48,259,398,835,128,206,764,841,403,824,124,881,21,450,107,420,53,134,113,973,778,995,576,142,12,836,876,569,840,144,729,238,781,375,264,806,757,329,422,927,25,902,818,170,325,301,196,226,320,391,967,852,111,415,629,929,926,594,780,127,646,230,426,502,693,289,428,151,654,235,315,363,54,844,290,749,641,265,681,979,243,961]","arrowright","0","6","217","1000","[""0086_N1000_K0217_NOCLIQUE"",""0037_N1000_K0217_CLIQUE""]","true"
"","","","","","audio-keyboard-response","71","76154","0.0-55.1-0.1-1.1","","null","audio_feedback/right/coin01.mp3","null","","","0","6","217","1000","[""0086_N1000_K0217_NOCLIQUE"",""0037_N1000_K0217_CLIQUE""]",""
"","","","","","canvas-keyboard-response","72","77753","0.0-56.0-0.0-0.0","","692","","arrowright","[85,578,175,859,403,246,296,557,869,874,122,420,384,593,684,340,901,424,389,137,755,319,213,488,57,320,524,952,83,487,211,858,81,312,799,816,254,835,264,759,780,95,878,973,257,814,464,727,810,32,715,328,842,235,587,457,903,506,305,13,545,954,806,773,100,629,483,342,159,325,791,907,471,195,976,295,60,909,855,277,710,56,712,574,96,604,981,687,839,696,928,661,200,565,33,527,795,937,833,969,892,505,657,274,770,336,834,223,51,532,216,311,123,559,500,359,518,227,47,996,688,40,519,68,69,699,950,906,830,623,846,552,456,836,643,621,65,338,654,718,705,374,583,4,508,556,306,79,967,941,898,724,451,334,84,433,615,867,434,239,634,887,520,785,936,292,953,517,436,162,752,645,125,368,807,886,655,669,679,496,255,376,242,856,156,792,88,472,971,392,947,267,326,428,468,740,251,275,540,949,358,821,543,719,136,866,495,957,948,716,592,366,10,624,618,131,646,360,955,706,469,21,445,951,395,350,308,221,198,850,983,935,784,930,831,787,230,318,609,92,631,932,382,899,801,106,407,911,728,771,542,87,371,163,535,726,693,590,244,588,260,139,174,344,781,430,155,196,639,297,569,437,612,979,678,470,743,66,498,666,914,441,690,992,478,76,837,841,581,984,161,822,141,534,672,369,865,637,563,600,775,331,720,972,630,763,766,293,364,245,203,408,442,675,279,6,960,703,265,484,8,902,214,491,466,346,680,813,673,381,929,41,454,475,184,105,700,711,541,54,173,546,217,685,638,300,709,533,659,547,802,452,627,692,553,243,465,18,272,653,958,945,259,812,990,734,596,959,573,284,516,166,405,691,503,686,427,209,651,963,74,301,25,343,571,676,577,818,827,756,904,507,635,748,620,789,55,599,460,103,501,289,294,562,626,845,978,167,24,335,875,538,337,849,632,237,548,601,192,977,435,332,30,537,921,347,383,140,201,0,808,897,406,233,422,283,575,961,397,261,776,722,121,815,916,439,492,589,119,71,514,268,150,853,187,826,474,16,411,28,504,994,881,98,148,110,86,999,398,38,641,597,934,663,72,754,943,34,944,745,995,363,905,819,797,186,229,531,263,667,956,570,178,739,461,584,490,918,582,108,777,997,189,965,721,863,862,861,127,864,502,22,387,633,824,323,942,287,765,185,249,489,572,523,202,367,206,220,896,987,828,138,783,149,316,321,988,204,591,665,77,415,285,985,315,63,447,414,399,250,825,991,370,829,404,129,49,883,143,232,309,838,117,561,513,917,7,212,480,479,444,160,303,701,580,730,362,104,848,683,236,558,361,412,207,707,116,256,702,647,544,42,354,567,224,20,872,352,82,91,668,112,99,697,876,157,419,164,851,499,307,409,89,458,890,401,271,396,351,893,58,2,515,380,273,222,450,968,375,528,114,922,118,966,870,333,262,750,240,393,873,455,199,386,101,238,353,530,674,889,539,165,113,327,170,372,144,758,895,511,193,288,986,477,276,29,45,586,509,551,208,181,266,606,919,36,378,183,908,924,39,313,365,788,554,753,536,357,231,694,423,598,247,708,373,613,314,418,172,485,385,126,658,431,476,179,738,877,453,133,713,497,764,746,440,975,576,782,793,804,35,735,555,946,62,339,616,111,145,14,640,910,912,927,253,871,391,664,510,299,459,742,146,650,880,938,843,642,550,729,607,564,107,568,410,19,926,884,749,128,698,857,416,46,644,847,349,769,737,494,75,80,94,37,286,177,768,158,689,330,888,191,677,215,786,135,226,31,982,660,429,747,974,151,448,449,852,400,670,413,270,115,579,778,12,298,27,462,980,761,446,44,291,682,662,933,920,329,803,11,594,844,64,180,388,3,482,736,102,595,426,356,130,93,252,652,611,402,73,23,52,282,210,50,348,744,258,324,197,280,840,882,811,823,854,772,993,619,218,731,152,989,809,525,529,432,549,522,760,617,817,379,622,913,153,656,43,15,345,820,134,741,278,9,463,53,560,900,767,860,70,438,723,704,90,154,602,147,61,891,998,417,526,894,774,648,796,610,762,879,970,304,732,26,394,1,97,923,962,481,512,194,248,939,695,120,585,109,925,832,78,241,628,234,798,377,17,310,171,190,614,681,67,317,390,625,790,964,751,228,714,940,915,566,5,355,205,443,169,225,493,868,805,725,603,757,671,421,931,800,124,885,486,182,717,467,425,219,608,636,188,733,322,605,48,290,281,132,649,269,168,341,302,142,779,176,59,521,473,794]","arrowright","0","7","217","1000","[""0041_N1000_K0217_NOCLIQUE"",""0068_N1000_K0217_CLIQUE""]","true"
"","","","","","audio-keyboard-response","73","78754","0.0-56.0-0.0-1.0","","null","audio_feedback/right/coin01.mp3","null","","","0","7","217","1000","[""0041_N1000_K0217_NOCLIQUE"",""0068_N1000_K0217_CLIQUE""]",""
"","","","","","canvas-keyboard-response","74","80569","0.0-57.0-0.0-0.0","","914","","arrowright","[890,24,135,591,409,544,41,398,225,808,968,171,335,661,198,350,703,354,202,838,147,394,304,724,327,904,141,984,96,153,766,845,244,744,476,740,377,919,797,19,939,331,549,970,992,803,349,786,545,395,89,643,506,839,844,80,768,852,40,362,310,229,309,657,367,264,435,206,680,139,140,862,606,588,810,325,656,112,164,370,761,824,557,222,726,575,670,520,56,410,708,515,889,711,127,465,33,251,98,386,585,654,952,551,776,843,407,916,922,54,30,196,18,477,809,78,694,69,356,850,344,600,775,650,719,541,599,412,856,450,382,705,582,765,267,509,154,430,789,415,882,655,374,767,43,65,750,28,715,421,298,570,472,272,114,402,250,653,953,820,624,232,849,500,611,45,787,865,482,185,613,885,625,318,602,13,610,462,795,134,279,866,914,51,905,959,301,747,576,291,647,484,614,339,149,504,596,401,108,129,558,819,211,822,512,295,997,212,50,949,138,99,305,249,368,672,739,178,955,425,929,995,193,646,276,300,391,499,493,87,9,697,700,379,315,777,899,4,848,521,720,316,519,951,170,83,773,964,854,861,937,988,837,497,20,427,901,406,460,982,628,254,609,352,431,132,543,12,637,104,223,971,860,173,199,303,483,292,148,902,261,479,118,969,60,289,494,126,826,943,133,913,151,29,107,598,203,64,228,644,190,911,947,404,871,556,324,231,61,817,769,630,631,253,886,698,573,346,522,603,235,323,296,863,110,924,74,869,859,847,365,92,877,756,757,158,723,32,381,525,683,270,230,524,422,633,393,243,674,983,498,226,191,807,896,742,785,218,790,806,554,568,758,285,256,981,429,155,278,858,737,143,116,675,829,960,351,58,221,416,903,130,907,873,432,938,923,980,176,930,343,733,685,48,634,195,917,973,950,505,142,294,778,878,467,177,97,105,563,812,816,21,314,375,741,783,491,888,174,666,793,94,589,895,695,330,523,928,945,150,979,851,237,828,340,682,547,592,385,380,400,353,620,288,448,622,676,184,933,252,527,935,752,749,306,71,357,961,388,699,371,731,735,583,912,553,581,974,215,461,66,689,387,489,668,59,539,868,446,297,821,17,447,204,168,709,390,120,364,841,746,569,307,454,67,420,781,800,333,321,948,239,383,818,725,53,578,311,963,486,909,160,271,236,827,594,681,440,621,341,638,27,985,975,561,209,123,456,234,471,180,942,242,987,95,473,802,748,72,115,62,764,906,207,956,976,426,881,537,188,121,23,894,124,831,161,533,378,875,63,597,880,76,389,434,774,736,772,662,366,16,874,10,994,867,246,586,910,396,299,792,470,714,579,293,103,615,90,175,754,373,451,73,721,128,940,751,91,443,925,49,514,224,595,492,68,665,635,281,44,934,684,205,100,5,419,941,679,55,219,921,329,667,780,39,967,257,918,361,286,944,580,605,332,189,183,920,627,152,317,836,915,348,516,957,604,798,815,842,302,93,832,259,734,463,571,201,464,326,891,702,496,608,897,290,233,565,248,247,38,42,452,542,145,526,319,137,328,428,438,469,342,999,730,109,187,805,14,481,313,759,529,552,166,156,488,713,743,418,998,345,449,728,732,445,34,57,760,629,337,830,706,197,658,717,0,347,704,88,284,887,879,518,649,753,564,660,125,216,405,716,413,485,47,617,338,81,531,468,587,495,986,363,546,540,641,35,280,833,977,962,560,538,119,36,113,958,804,559,835,513,131,623,466,692,334,555,144,693,989,926,788,528,200,408,946,433,85,991,507,840,619,2,106,457,392,562,784,275,501,893,864,411,102,636,220,490,459,369,277,86,282,274,186,227,771,441,82,548,678,179,273,872,567,876,696,677,908,669,782,11,690,936,607,1,536,111,172,214,566,384,436,437,640,710,511,475,648,46,6,7,136,532,444,210,70,283,900,535,791,372,857,474,686,439,855,770,801,455,8,729,572,502,287,601,972,245,745,322,931,37,424,590,442,403,823,26,320,652,645,584,814,712,31,762,241,238,927,159,691,659,966,517,487,870,308,162,701,194,262,663,77,530,157,954,932,978,312,358,639,480,738,453,165,213,508,642,376,217,811,577,268,22,478,117,626,534,853,898,336,718,612,996,75,260,84,25,755,799,101,727,618,671,3,269,664,503,707,796,182,574,687,993,593,779,884,240,417,255,258,167,79,397,52,399,892,825,146,192,423,208,616,359,122,673,722,265,834,355,169,965,360,763,846,181,550,794,266,458,510,632,883,263,163,651,15,990,414,688,813]","arrowright","0","8","200","1000","[""0021_N1000_K0200_NOCLIQUE"",""0076_N1000_K0200_CLIQUE""]","true"
"","","","","","audio-keyboard-response","75","81554","0.0-57.0-0.0-1.0","","null","audio_feedback/right/coin01.mp3","null","","","0","8","200","1000","[""0021_N1000_K0200_NOCLIQUE"",""0076_N1000_K0200_CLIQUE""]",""
"","","","","","canvas-keyboard-response","76","83455","0.0-58.0-0.0-0.0","","978","","arrowright","[587,659,352,258,90,998,53,111,917,174,203,107,71,588,840,684,194,351,33,660,787,383,32,746,51,984,911,850,712,398,625,743,994,242,347,784,942,616,897,654,635,80,299,857,120,690,560,348,301,732,0,889,566,152,192,993,230,342,427,160,912,782,170,799,67,168,561,952,781,31,953,62,653,969,788,254,962,995,211,890,210,216,696,899,397,49,39,497,235,957,785,4,600,536,816,924,422,146,400,287,385,204,884,186,540,142,689,843,960,223,315,24,983,333,916,770,286,500,103,620,529,708,468,522,810,629,10,763,327,437,487,901,128,201,562,247,423,634,289,29,453,929,58,26,96,727,196,524,229,569,407,641,839,777,603,702,336,314,464,655,166,774,435,888,475,149,139,657,699,557,685,508,944,164,783,109,703,489,844,273,425,226,121,447,955,455,300,720,278,679,297,631,915,721,687,366,861,274,346,555,48,126,686,510,713,818,187,378,771,838,319,233,402,706,526,202,159,35,501,622,523,856,63,867,647,664,572,467,970,118,722,177,281,291,272,671,824,832,311,183,935,119,84,59,715,868,122,804,913,215,224,445,837,256,921,521,614,963,736,759,923,172,619,778,441,650,670,794,148,141,666,92,260,751,298,893,570,793,618,131,864,197,288,855,698,940,747,99,220,704,551,184,1,789,155,277,971,928,624,842,695,279,875,156,920,175,88,505,337,78,302,271,135,652,354,157,458,665,637,372,434,276,101,65,633,753,535,415,954,798,598,797,483,181,167,206,956,651,677,114,77,779,876,902,329,341,490,219,117,764,755,318,979,905,516,438,253,91,389,675,55,198,943,756,854,661,878,852,64,98,548,388,825,412,515,83,823,116,745,765,594,292,949,56,221,668,533,465,282,188,808,795,392,421,93,316,813,153,959,910,376,692,79,182,190,504,581,371,801,375,23,424,872,761,452,649,73,991,769,478,827,701,207,471,251,904,539,663,480,728,356,705,809,820,474,828,758,829,511,537,519,926,877,265,158,473,964,290,596,295,134,688,681,821,626,643,395,990,790,381,534,5,678,599,140,518,481,546,951,945,358,873,270,556,552,470,414,374,862,262,238,936,34,16,442,403,494,259,373,209,313,420,488,161,240,860,621,726,835,332,27,350,608,81,138,538,25,841,814,382,815,257,976,531,377,436,249,353,927,20,396,456,124,57,549,553,640,85,75,409,115,355,68,834,335,38,939,966,321,454,803,448,222,338,264,662,191,851,76,830,431,239,762,906,567,145,602,69,165,178,105,492,363,462,248,461,451,307,642,871,768,542,826,592,682,112,13,513,250,331,343,645,46,2,735,44,502,106,102,582,922,604,306,326,432,898,261,419,937,50,644,479,874,163,349,895,597,527,12,887,757,961,896,836,21,499,817,632,171,812,718,997,694,593,234,334,195,47,847,19,948,985,22,938,646,426,576,418,613,719,36,711,252,193,947,304,775,11,848,169,772,554,710,811,495,132,269,568,520,739,565,328,767,225,359,6,179,716,82,457,384,89,339,74,416,303,741,357,845,977,730,268,365,43,369,676,558,683,231,925,476,669,630,379,667,440,413,601,8,981,305,880,853,212,469,340,236,317,205,819,891,965,807,870,628,472,580,491,227,658,394,950,638,408,367,623,577,639,466,173,999,208,932,61,498,973,310,707,344,296,267,882,892,54,849,361,14,754,544,846,380,213,486,931,590,330,477,72,154,766,615,748,200,863,974,992,255,584,773,583,881,733,517,482,734,127,308,571,459,322,680,430,589,228,724,284,978,934,390,40,496,136,869,543,86,914,989,87,484,100,393,585,573,9,760,564,909,752,370,886,574,617,485,786,37,41,547,410,822,607,541,444,729,731,742,113,780,941,386,463,360,879,185,325,42,52,450,176,294,232,559,263,930,217,802,108,417,493,151,740,143,162,900,792,545,967,28,460,70,15,691,532,110,605,648,150,697,737,514,345,575,528,744,404,218,125,610,406,986,805,987,579,933,285,45,606,95,401,866,362,509,791,275,714,449,391,66,104,283,806,405,674,656,237,525,507,907,673,411,885,586,214,364,368,246,97,723,3,266,7,399,241,996,18,550,243,859,627,443,309,612,958,245,563,591,908,709,280,975,894,428,293,831,776,324,980,918,578,512,144,387,60,429,700,725,433,800,919,609,189,717,883,130,636,796,312,244,903,320,123,94,833,133,17,858,30,137,749,180,595,611,199,982,972,530,446,865,693,323,672,988,147,738,968,129,503,750,439,946,506]","arrowright","0","9","200","1000","[""0014_N1000_K0200_NOCLIQUE"",""0087_N1000_K0200_CLIQUE""]","true"
"","","","","","audio-keyboard-response","77","84454","0.0-58.0-0.0-1.0","","null","audio_feedback/right/coin01.mp3","null","","","0","9","200","1000","[""0014_N1000_K0200_NOCLIQUE"",""0087_N1000_K0200_CLIQUE""]",""
"","","","","","canvas-keyboard-response","78","86135","0.0-59.0-0.0-0.0","","756","","arrowleft","[549,698,263,139,788,604,834,34,246,477,774,64,149,508,534,313,370,317,77,141,865,817,11,801,474,946,2,19,812,86,837,700,418,673,754,123,616,567,438,62,339,216,722,573,363,476,342,857,393,378,592,833,497,125,356,719,748,287,505,889,650,300,94,499,855,132,504,95,547,558,409,653,145,975,846,687,58,431,925,114,918,387,5,961,644,906,584,20,27,513,46,303,824,45,783,336,373,847,747,612,825,485,151,574,548,79,170,281,699,17,416,369,150,4,529,902,16,627,904,630,907,203,710,519,254,694,107,553,965,353,551,186,333,750,689,212,628,222,831,305,30,49,730,511,424,488,793,898,677,350,48,483,428,57,420,340,703,451,609,741,102,175,217,177,555,55,354,390,351,667,242,735,173,52,917,37,980,988,293,274,606,54,160,302,468,733,21,851,562,571,982,29,740,850,202,324,128,759,578,429,535,379,647,626,394,936,264,557,992,238,544,471,684,25,597,346,533,641,326,382,577,997,843,489,664,176,841,645,666,256,744,452,360,357,693,221,683,472,517,158,359,194,726,92,1,220,93,663,165,941,135,204,712,143,179,294,368,268,400,265,539,72,770,386,335,560,235,669,341,789,593,180,897,949,200,927,605,711,891,127,32,957,191,964,459,662,61,962,782,12,280,6,367,414,939,596,40,756,981,365,541,458,862,275,226,322,525,422,808,888,272,713,98,956,900,38,0,815,193,229,18,110,442,979,224,162,657,99,209,737,453,42,470,233,546,447,78,935,249,792,600,739,631,969,853,955,875,327,826,629,503,469,861,501,462,311,199,383,389,701,806,758,10,911,993,871,377,880,670,614,655,749,836,39,586,183,455,131,736,236,168,117,407,858,672,809,797,205,704,649,878,361,318,241,331,278,947,301,213,83,934,207,839,244,785,765,894,374,752,140,690,142,119,66,594,760,408,769,832,237,585,410,152,863,9,164,137,292,998,514,691,113,406,761,563,796,358,314,842,944,423,240,665,671,298,775,28,89,405,509,460,540,133,252,856,882,352,210,518,192,582,446,950,189,167,707,974,933,385,328,283,122,454,554,625,635,984,15,945,561,954,63,473,890,296,76,312,566,364,441,728,231,848,682,375,479,500,688,506,599,807,271,773,621,171,932,288,124,780,816,482,59,714,277,721,952,515,273,24,720,253,73,822,916,276,239,743,643,634,985,502,157,959,120,70,642,583,319,696,830,685,307,716,432,65,31,148,603,840,795,678,211,316,838,461,14,486,659,174,90,572,234,255,3,646,803,33,261,436,532,587,495,622,734,640,943,814,651,854,692,767,329,435,230,613,870,723,542,43,971,337,259,372,214,859,184,938,953,22,968,285,595,115,705,376,636,126,867,537,366,380,923,905,467,146,201,206,67,299,601,484,8,109,154,967,493,869,781,602,709,88,615,960,443,972,819,7,887,401,868,569,480,225,291,325,310,185,708,866,112,69,908,404,106,618,762,886,764,931,266,581,190,251,388,753,763,849,258,118,56,619,87,478,676,245,84,929,977,706,279,71,166,243,402,417,922,97,590,403,818,751,579,912,580,543,248,951,111,731,159,490,412,607,778,776,779,343,520,415,873,970,611,523,105,81,991,91,675,155,996,913,223,576,872,805,800,530,717,702,638,349,398,794,108,315,844,332,116,623,899,449,827,411,215,810,144,802,575,940,556,392,334,903,306,395,656,347,835,13,35,660,297,570,68,421,188,909,598,755,290,227,44,828,439,874,757,440,658,829,434,766,930,228,942,718,134,397,624,36,973,419,512,247,674,725,892,487,983,101,591,492,481,260,197,791,308,196,26,668,823,536,348,147,608,74,531,937,425,219,208,732,924,948,121,787,51,588,910,559,198,444,552,526,250,813,156,345,270,921,821,496,896,928,528,790,355,727,620,103,729,901,399,919,507,498,745,958,633,522,987,475,289,963,995,786,864,893,161,989,784,771,550,466,463,362,464,218,798,845,457,344,491,654,286,510,652,136,966,445,309,545,986,426,527,565,282,182,456,391,138,883,895,437,915,637,330,746,860,80,96,978,990,648,262,85,396,521,130,323,610,304,538,724,284,23,232,381,772,384,661,82,920,169,976,75,295,914,257,433,679,697,680,589,564,320,881,617,153,994,178,47,494,715,695,876,879,129,885,820,371,742,852,267,681,811,104,195,516,427,41,777,999,568,321,50,639,100,163,53,768,632,448,686,450,524,60,172,799,430,269,465,926,338,413,884,187,804,877,738,181]","arrowleft","0","10","183","1000","[""0053_N1000_K0183_CLIQUE"",""0088_N1000_K0183_NOCLIQUE""]","true"
"","","","","","audio-keyboard-response","79","87134","0.0-59.0-0.0-1.0","","null","audio_feedback/right/coin01.mp3","null","","","0","10","183","1000","[""0053_N1000_K0183_CLIQUE"",""0088_N1000_K0183_NOCLIQUE""]",""
"","","","","","canvas-keyboard-response","80","88380","0.0-60.0-0.0-0.0","","315",""," ","[693,771,105,674,988,538,258,926,919,668,503,807,361,875,734,452,947,390,0,269,796,767,866,208,46,128,681,115,953,939,540,998,470,663,111,284,36,59,682,64,276,4,911,840,586,314,335,180,692,535,79,905,243,752,872,391,832,859,721,547,31,259,997,690,557,254,131,895,231,185,815,806,532,227,225,536,329,134,526,433,672,65,633,379,804,374,784,831,644,896,987,918,198,737,491,247,282,508,127,365,632,222,434,427,493,171,652,67,613,217,401,194,588,347,890,52,938,342,577,833,520,2,25,876,219,882,597,637,136,790,63,765,345,87,916,296,676,578,517,554,968,910,580,51,164,887,293,176,301,184,834,635,80,280,695,684,309,996,386,679,754,739,816,587,66,590,598,304,182,846,27,920,764,880,869,513,669,628,407,541,10,226,932,828,778,178,500,504,822,377,524,645,179,707,931,298,58,870,813,909,592,294,825,914,216,650,285,289,589,656,564,960,610,206,748,331,935,510,757,569,623,928,565,497,927,549,978,242,945,436,212,743,567,297,387,654,886,45,964,420,71,789,746,162,453,481,516,275,625,685,864,502,780,327,575,124,983,484,850,257,132,99,56,240,548,371,940,726,985,993,30,316,527,678,723,812,819,366,930,824,951,444,405,186,904,735,149,841,446,942,68,733,435,670,442,849,769,320,140,995,858,515,42,534,969,196,677,101,803,979,300,879,245,7,443,958,237,197,606,657,209,373,823,528,92,599,551,8,821,973,450,722,146,718,641,773,719,426,560,104,495,161,573,922,584,810,830,424,400,770,228,148,38,15,755,758,375,616,41,163,340,605,829,47,214,477,389,12,884,96,126,467,311,402,113,642,333,915,808,981,26,775,85,917,680,456,24,145,957,556,900,439,319,913,619,490,72,29,215,878,476,109,6,967,874,691,640,537,3,457,220,451,959,153,646,521,250,703,406,505,177,253,854,322,267,742,195,261,350,463,912,125,396,772,40,23,572,50,35,422,662,929,448,431,716,984,673,166,894,17,394,141,28,93,634,751,447,248,961,244,363,529,256,471,793,151,172,234,986,571,715,315,774,614,576,432,898,760,380,425,511,809,745,686,49,190,120,558,839,738,559,100,62,351,579,288,533,519,393,952,607,313,421,21,69,512,924,74,299,706,736,383,602,181,292,747,378,883,155,211,278,318,608,480,75,268,724,902,277,989,310,308,438,263,566,270,885,956,430,123,936,203,980,341,974,9,61,202,494,207,782,845,364,252,271,783,881,360,290,629,759,459,702,618,712,175,550,413,462,191,750,328,89,687,555,411,76,713,741,412,545,409,349,899,147,168,664,43,999,265,601,262,249,479,699,119,232,158,272,631,83,732,581,410,230,609,464,720,542,496,965,454,943,776,499,295,235,102,94,800,944,118,794,440,970,199,798,923,675,117,838,791,802,229,868,465,97,303,34,562,636,306,369,977,357,570,107,596,906,423,273,843,665,946,837,152,233,334,81,792,620,934,260,103,763,135,415,975,976,53,159,336,708,305,48,659,779,218,460,941,523,353,368,937,801,354,697,70,173,624,626,488,753,971,710,239,403,367,785,106,638,449,514,857,863,797,385,485,91,11,552,274,787,160,418,142,399,855,114,352,627,78,187,698,518,786,255,321,82,492,112,933,826,655,781,170,714,711,871,241,805,54,889,167,88,901,478,811,731,44,948,287,55,461,585,437,891,907,466,183,110,671,372,326,651,398,507,395,842,343,86,348,317,543,727,472,95,73,639,193,397,604,653,865,897,139,563,848,955,795,622,84,574,137,561,621,281,165,835,39,553,486,129,768,788,925,705,949,156,688,583,130,861,658,982,381,483,992,223,582,116,475,370,661,133,201,16,33,143,382,921,344,615,709,108,445,762,862,696,994,506,384,60,1,666,325,509,903,847,525,600,337,761,238,593,213,428,189,950,531,90,683,501,728,818,5,388,419,877,701,251,246,404,729,836,279,689,338,98,323,744,121,867,57,888,358,169,18,468,544,37,827,860,221,893,725,991,455,630,414,530,660,392,264,210,591,908,417,799,852,649,568,408,648,694,458,820,204,174,539,188,474,346,643,717,236,487,200,546,469,302,362,844,749,356,489,892,522,853,766,873,756,150,990,138,612,77,740,332,817,324,13,312,144,595,963,20,205,704,355,429,307,291,441,972,157,617,603,856,700,22,777,962,330,647,611,32,814,283,966,851,482,594,266,498,286,154,19,376,224,473,122,667,14,954,359,339,730,192,416]","arrowleft","0","11","183","1000","[""0029_N1000_K0183_CLIQUE"",""0016_N1000_K0183_NOCLIQUE""]",""
"","","","","","audio-keyboard-response","81","89454","0.0-60.0-0.0-1.0","","null","audio_feedback/shuffles/shuffle01.mp3","null","","","0","11","183","1000","[""0029_N1000_K0183_CLIQUE"",""0016_N1000_K0183_NOCLIQUE""]",""
"","","","","","canvas-keyboard-response","82","90792","0.0-60.1-0.1-0.1","","384","","arrowleft","[504,314,342,392,888,349,144,956,777,178,908,11,524,74,120,872,984,20,88,801,266,89,336,67,567,909,165,458,477,500,125,949,203,895,713,771,902,210,27,202,768,723,978,358,21,613,381,811,803,134,276,926,302,146,430,398,423,418,976,16,362,566,893,874,425,521,999,404,292,17,705,53,377,208,890,637,60,983,549,655,245,142,55,695,173,262,299,290,748,455,547,920,200,366,898,406,781,343,784,559,110,13,457,15,171,318,408,816,899,191,587,328,31,160,282,596,95,554,951,738,551,415,593,848,216,50,485,561,698,453,706,590,591,917,753,291,736,3,326,278,707,7,982,924,619,426,211,851,268,998,118,948,413,769,230,442,925,800,233,152,583,780,264,786,871,335,464,150,170,804,620,153,886,388,589,957,725,975,712,476,364,939,25,837,914,692,271,168,572,397,635,879,625,548,86,490,865,223,744,287,158,616,227,481,782,885,374,773,656,860,854,962,417,279,143,891,448,468,623,960,642,817,670,577,671,877,553,527,617,576,149,363,687,764,197,297,825,255,513,424,657,765,938,743,229,139,384,129,265,280,963,980,694,986,109,979,503,57,100,797,84,465,912,977,724,841,183,486,141,254,274,101,323,739,950,763,820,38,552,834,747,599,436,716,737,215,680,600,40,403,69,337,257,981,666,491,148,922,47,224,188,857,431,509,690,252,345,821,371,595,734,669,332,365,64,331,462,217,126,480,822,242,715,164,696,213,473,422,111,116,479,68,232,338,382,906,647,810,185,622,438,140,122,794,659,154,612,709,754,985,762,826,32,789,693,682,910,391,359,482,961,81,179,761,246,959,128,151,708,356,267,945,846,193,588,675,369,30,704,324,496,965,87,270,621,329,586,275,44,528,629,155,941,579,832,510,774,776,674,506,728,992,631,937,91,845,758,614,515,350,907,71,39,471,710,221,1,420,940,541,195,446,295,651,636,927,844,62,307,875,114,10,838,136,124,537,677,123,766,41,341,177,49,29,880,156,808,488,580,493,923,633,238,605,836,454,340,947,538,679,608,251,99,722,249,198,187,380,921,735,933,103,83,974,18,218,697,973,685,489,176,393,12,288,658,452,663,467,721,887,344,876,806,749,903,347,792,180,79,117,104,772,790,138,333,799,557,849,277,77,58,990,98,942,597,14,443,354,4,867,892,383,450,46,459,204,106,351,711,742,469,859,308,72,346,361,189,664,470,169,746,225,626,815,997,610,82,461,952,387,97,133,445,376,569,665,604,298,571,829,355,603,113,416,107,565,594,102,439,823,889,85,745,582,379,409,568,348,606,855,660,137,833,519,779,954,994,730,793,444,668,463,632,843,533,672,293,530,643,209,868,304,222,522,22,531,440,162,928,896,688,870,434,497,904,955,368,988,862,518,830,564,35,339,96,132,545,943,219,932,263,919,256,372,220,526,700,108,196,437,574,92,667,206,121,435,512,432,400,390,718,483,48,272,523,814,560,472,964,237,181,787,9,573,869,80,757,145,770,516,360,819,755,727,652,247,33,327,260,28,19,244,375,839,441,539,389,378,607,502,159,241,661,311,562,412,740,550,673,285,936,105,505,248,395,511,61,317,556,795,558,419,475,916,429,54,253,226,798,818,726,411,609,529,309,966,852,65,487,971,778,231,540,286,115,686,585,897,720,756,783,967,913,236,447,648,681,683,147,935,499,788,56,534,653,322,630,662,882,494,321,414,931,313,592,42,334,283,640,261,791,284,624,194,394,259,75,864,401,968,8,514,900,34,131,915,563,119,167,5,258,520,611,59,881,396,750,689,294,835,702,508,646,166,972,987,26,850,684,357,184,319,352,385,474,192,535,373,325,273,751,953,310,320,239,717,63,199,858,402,76,894,741,598,840,316,995,993,584,601,901,23,305,969,205,2,37,306,386,991,732,543,929,618,546,752,51,0,884,731,649,638,828,699,729,970,650,905,785,427,281,303,883,45,627,946,235,94,654,478,495,615,135,532,676,207,824,507,570,831,186,678,428,944,930,214,399,634,807,639,805,575,628,536,301,367,456,300,691,112,827,911,172,760,796,240,759,989,93,70,701,847,958,410,873,296,289,555,182,996,433,525,542,484,498,43,812,492,460,719,809,315,853,775,581,842,228,421,36,6,866,90,212,163,269,130,641,802,243,544,714,861,703,405,934,175,78,312,73,644,578,174,856,878,517,501,157,66,918,234,127,645,201,466,353,24,52,602,863,733,330,407,813,250,451,767,190,449,161,370]","arrowleft","0","11","183","1000","[""0029_N1000_K0183_CLIQUE"",""0016_N1000_K0183_NOCLIQUE""]","true"
"","","","","","audio-keyboard-response","83","91794","0.0-60.1-0.1-1.1","","null","audio_feedback/right/coin01.mp3","null","","","0","11","183","1000","[""0029_N1000_K0183_CLIQUE"",""0016_N1000_K0183_NOCLIQUE""]",""
"","","","","","canvas-keyboard-response","84","94320","0.0-61.0-0.0-0.0","","1608","","arrowright","[604,628,630,858,918,142,901,567,793,244,889,933,853,478,221,596,720,576,863,957,262,286,362,983,674,571,119,747,868,147,559,895,234,799,660,229,129,546,319,432,418,862,96,731,175,275,156,414,525,913,627,250,81,564,190,964,583,295,23,333,654,296,762,313,955,153,978,599,187,390,823,359,235,947,13,565,223,619,782,937,966,462,822,429,102,931,87,789,377,383,357,12,191,851,197,292,202,911,958,883,480,124,534,212,179,664,988,611,879,135,204,306,467,663,744,981,349,180,813,902,299,420,205,580,140,79,643,716,941,626,779,283,819,943,137,824,993,886,148,214,293,601,451,954,675,450,316,160,350,585,291,399,39,777,365,935,422,218,742,276,597,917,195,346,704,524,494,898,22,811,173,51,968,737,653,963,882,496,768,477,631,940,670,637,754,500,621,373,790,342,428,979,366,369,773,741,708,536,492,198,623,368,145,77,916,186,389,314,743,832,117,850,487,540,548,84,649,318,98,830,320,64,151,339,406,80,982,949,519,987,490,605,826,312,361,719,86,335,69,752,63,396,65,681,89,285,942,798,802,199,358,723,903,138,105,562,965,921,210,953,624,239,150,764,441,410,162,427,852,270,72,900,470,134,939,459,971,21,606,193,60,130,271,421,686,489,471,521,183,165,58,504,847,706,938,136,792,385,715,166,82,472,520,310,529,817,794,400,543,374,449,896,398,168,304,94,411,818,775,821,960,161,633,127,959,255,17,343,466,761,909,874,710,152,514,759,484,662,962,569,371,381,423,225,347,125,20,425,118,25,541,495,121,75,483,465,680,28,184,217,41,444,555,558,513,53,523,996,684,977,48,503,586,9,924,767,440,455,67,338,644,570,370,518,488,556,640,994,340,290,10,725,934,688,634,845,474,552,780,54,974,772,512,259,636,614,600,463,1,331,528,833,650,839,169,481,869,213,88,691,249,278,220,435,508,984,539,68,722,163,497,461,336,951,758,920,598,985,8,769,123,683,784,956,906,458,345,40,843,711,403,760,538,897,865,284,185,687,272,386,260,551,910,838,247,95,698,4,745,269,261,927,635,729,728,967,848,602,755,925,43,899,66,905,108,47,766,76,31,308,144,553,697,493,486,603,781,0,574,324,203,302,479,482,783,786,376,273,703,457,491,785,387,750,264,2,453,712,808,530,578,236,678,207,733,11,294,907,700,109,950,547,215,311,111,648,468,253,661,887,646,677,251,615,835,975,595,158,875,945,297,402,256,288,279,42,765,809,834,807,404,188,857,379,904,738,106,866,417,844,871,356,14,330,431,176,192,776,363,208,104,34,281,584,380,860,113,309,505,49,242,45,307,442,326,196,787,434,837,200,498,669,608,101,803,884,891,587,609,6,448,91,61,100,870,880,237,610,325,456,696,16,989,976,375,980,394,641,303,658,44,855,721,613,443,341,572,157,511,122,57,329,516,751,388,352,659,419,695,672,690,526,961,46,141,622,929,322,408,172,73,948,327,517,445,877,651,795,560,632,372,872,788,447,689,321,735,620,178,415,282,878,566,438,436,825,740,714,334,867,224,667,840,231,238,143,50,139,267,230,27,589,693,289,38,770,531,893,174,607,577,219,515,616,763,364,885,926,92,384,915,209,222,507,549,998,969,771,841,506,594,582,315,395,923,591,407,24,265,842,323,699,970,154,753,360,554,337,864,18,510,919,724,170,332,593,732,277,59,545,454,344,973,115,426,810,254,718,652,676,164,93,812,181,70,62,542,110,3,522,99,107,694,692,682,227,36,881,257,378,888,243,734,476,791,392,756,997,544,116,568,991,131,800,83,815,579,749,128,685,655,820,268,446,391,114,914,836,355,550,876,806,5,15,590,727,912,382,354,629,831,873,149,367,797,71,894,829,625,416,804,171,673,746,748,393,78,828,645,638,849,657,452,189,206,656,405,705,563,177,245,35,739,132,351,133,30,499,413,861,573,890,433,424,805,248,930,561,7,485,211,439,274,816,535,52,527,258,713,854,647,74,33,801,233,90,300,642,679,353,437,612,666,182,774,932,796,305,972,460,159,588,155,26,922,37,103,298,120,581,908,263,228,469,201,730,846,226,757,928,702,252,301,412,665,348,592,944,709,952,946,986,216,29,532,464,287,317,668,618,232,97,892,502,401,19,778,56,397,126,827,707,990,430,240,85,671,936,241,266,533,701,999,537,55,575,280,509,473,167,726,146,992,856,617,409,995,736,557,717,814,859,328,112,475,246,501,194,639,32]","arrowright","0","12","167","1000","[""0087_N1000_K0167_NOCLIQUE"",""0021_N1000_K0167_CLIQUE""]","true"
"","","","","","audio-keyboard-response","85","95314","0.0-61.0-0.0-1.0","","null","audio_feedback/right/coin01.mp3","null","","","0","12","167","1000","[""0087_N1000_K0167_NOCLIQUE"",""0021_N1000_K0167_CLIQUE""]",""
"","","","","","canvas-keyboard-response","86","99010","0.0-62.0-0.0-0.0","","2783",""," ","[599,578,719,774,287,356,559,792,624,438,255,493,43,831,310,298,641,828,540,515,745,251,228,743,406,85,532,415,964,839,695,92,105,580,932,21,534,671,919,529,106,701,973,602,59,507,656,896,832,705,40,664,807,960,565,137,900,487,161,718,261,256,760,99,594,296,698,187,459,313,200,795,631,123,423,546,377,781,748,822,697,390,300,201,840,332,204,30,650,706,468,400,508,946,84,410,561,209,920,638,761,588,18,335,754,171,895,663,72,576,889,220,683,469,129,202,277,966,633,353,8,395,803,869,193,305,617,12,916,239,464,860,676,174,556,447,933,295,24,236,205,914,823,453,939,314,237,545,109,911,132,619,982,543,403,866,613,191,178,274,728,783,849,630,235,281,345,436,17,798,301,979,560,591,341,278,384,785,937,250,750,141,229,154,104,113,694,504,768,670,552,749,628,338,551,371,39,334,207,442,948,805,333,987,199,31,642,632,364,564,246,711,859,392,440,181,374,848,432,36,427,953,530,133,328,42,796,763,590,867,323,51,212,770,112,657,961,604,994,715,758,974,976,23,816,168,267,241,276,342,122,569,817,893,609,583,448,284,818,873,752,592,830,327,536,57,582,620,712,958,402,882,357,596,421,221,218,210,724,234,257,213,669,264,640,5,626,897,325,78,722,186,908,263,732,915,526,175,846,383,288,801,41,996,685,901,950,348,646,737,208,389,185,151,653,429,531,282,804,776,972,713,143,271,575,837,677,930,824,294,163,393,340,13,522,450,47,829,470,22,799,621,167,124,473,49,189,644,765,485,985,949,489,525,786,46,800,794,500,472,608,577,119,86,947,622,244,34,787,100,90,80,940,358,135,834,198,601,222,572,1,28,639,297,864,190,336,6,456,658,66,820,101,82,687,997,401,444,727,548,217,68,703,814,227,850,518,354,600,874,872,15,484,714,131,690,182,686,645,589,675,148,753,391,610,858,929,173,153,969,909,482,180,465,968,762,376,225,898,102,231,483,769,216,454,491,679,779,924,27,510,623,735,956,688,733,359,723,927,955,845,496,509,157,399,857,366,54,520,291,660,258,516,446,270,756,414,885,253,44,579,134,666,880,738,875,286,517,692,925,74,308,7,764,142,842,219,729,76,293,65,490,499,350,495,116,494,643,360,396,329,315,370,265,103,998,77,574,884,684,659,416,115,455,363,369,912,110,170,428,693,780,813,862,938,584,381,144,283,306,365,245,457,595,362,527,337,150,91,79,954,648,309,887,165,488,605,952,176,164,347,262,751,279,411,905,665,512,452,136,702,629,654,145,462,211,73,926,876,917,990,372,430,661,273,97,351,853,614,424,944,89,259,771,26,214,196,959,418,988,269,755,152,146,125,913,434,48,155,232,331,87,29,37,863,910,696,811,673,726,539,242,501,936,320,806,33,934,466,841,759,586,55,634,566,63,215,544,302,192,19,285,513,844,777,16,767,573,149,870,957,651,563,906,64,838,166,25,405,318,425,627,346,757,316,886,479,349,14,707,904,861,147,894,819,83,478,975,56,188,184,38,289,883,625,50,2,967,581,523,203,304,734,330,773,81,680,989,238,75,766,441,550,772,902,272,797,324,158,739,481,636,607,879,810,943,69,847,443,587,942,720,731,352,183,730,248,449,355,812,139,343,852,541,538,419,571,533,431,791,986,107,999,121,9,240,480,991,977,678,521,993,445,547,117,387,682,928,503,815,385,275,71,511,736,433,721,368,899,868,742,339,169,554,120,224,782,10,422,322,700,412,528,128,836,585,58,118,981,223,549,397,668,891,160,53,618,907,439,827,108,616,965,603,378,557,855,741,562,321,612,467,62,710,67,382,379,649,35,931,230,717,114,835,319,461,570,3,159,388,505,344,394,995,941,460,878,4,778,825,61,558,497,854,809,980,312,970,983,373,413,70,130,790,477,856,476,506,888,611,437,708,254,709,179,716,408,260,699,833,409,458,667,404,475,535,52,992,553,463,843,361,435,725,280,514,243,747,865,486,268,307,11,420,127,0,597,195,252,498,662,615,598,266,903,311,451,789,746,606,793,826,471,963,45,524,851,744,740,98,299,290,492,386,32,417,537,984,177,704,593,502,674,206,821,567,971,923,922,655,126,918,635,60,226,775,637,978,788,808,156,681,652,292,95,474,380,426,93,802,881,94,542,647,945,303,672,233,317,197,519,249,784,871,935,877,96,367,398,568,962,691,555,890,140,375,194,20,111,247,138,892,172,951,88,326,921,407,162,689]","arrowleft","0","13","167","1000","[""0067_N1000_K0167_CLIQUE"",""0042_N1000_K0167_NOCLIQUE""]",""
"","","","","","audio-keyboard-response","87","100074","0.0-62.0-0.0-1.0","","null","audio_feedback/shuffles/shuffle01.mp3","null","","","0","13","167","1000","[""0067_N1000_K0167_CLIQUE"",""0042_N1000_K0167_NOCLIQUE""]",""
