"success","timeout","failed_images","failed_audio","failed_video","trial_type","trial_index","time_elapsed","internal_node_id","view_history","rt","stimulus","response","nodes_order","correct_response","block_index","presentation_index","clique_size","graph_size","graphs_names","graphs_couple","accuracy"
"true","false","[]","[]","[]","preload","0","166","0.0-0.0","","","","","","","","","","","","",""
"","","","","","pavlovia","1","667","0.0-1.0","","","","","","","","","","","","",""
"","","","","","instructions","2","80519","0.0-2.0","[{""page_index"":0,""viewing_time"":78576},{""page_index"":1,""viewing_time"":1270}]","79847","","","","","","","","","","",""
"true","false","[]","[]","[]","preload","3","81046","0.0-3.0","","","","","","","","","","","","",""
"","","","","","instructions","4","101948","0.0-4.0","[{""page_index"":0,""viewing_time"":1003},{""page_index"":1,""viewing_time"":197},{""page_index"":2,""viewing_time"":206},{""page_index"":3,""viewing_time"":166},{""page_index"":4,""viewing_time"":233},{""page_index"":5,""viewing_time"":993},{""page_index"":6,""viewing_time"":188},{""page_index"":7,""viewing_time"":251},{""page_index"":8,""viewing_time"":171},{""page_index"":9,""viewing_time"":151},{""page_index"":10,""viewing_time"":135},{""page_index"":11,""viewing_time"":157},{""page_index"":12,""viewing_time"":148},{""page_index"":13,""viewing_time"":143},{""page_index"":14,""viewing_time"":144},{""page_index"":15,""viewing_time"":158},{""page_index"":16,""viewing_time"":159},{""page_index"":17,""viewing_time"":166},{""page_index"":18,""viewing_time"":259},{""page_index"":19,""viewing_time"":159},{""page_index"":20,""viewing_time"":159},{""page_index"":21,""viewing_time"":164},{""page_index"":22,""viewing_time"":175},{""page_index"":23,""viewing_time"":184},{""page_index"":24,""viewing_time"":190},{""page_index"":25,""viewing_time"":199},{""page_index"":26,""viewing_time"":187},{""page_index"":27,""viewing_time"":216},{""page_index"":28,""viewing_time"":268},{""page_index"":29,""viewing_time"":169},{""page_index"":30,""viewing_time"":178},{""page_index"":31,""viewing_time"":177},{""page_index"":32,""viewing_time"":193},{""page_index"":33,""viewing_time"":529},{""page_index"":34,""viewing_time"":1267},{""page_index"":35,""viewing_time"":964},{""page_index"":36,""viewing_time"":462},{""page_index"":37,""viewing_time"":427},{""page_index"":38,""viewing_time"":443},{""page_index"":39,""viewing_time"":409},{""page_index"":40,""viewing_time"":422},{""page_index"":41,""viewing_time"":1492},{""page_index"":42,""viewing_time"":573},{""page_index"":43,""viewing_time"":828},{""page_index"":44,""viewing_time"":581},{""page_index"":45,""viewing_time"":487},{""page_index"":46,""viewing_time"":434},{""page_index"":47,""viewing_time"":1329},{""page_index"":48,""viewing_time"":435},{""page_index"":49,""viewing_time"":336},{""page_index"":50,""viewing_time"":1447},{""page_index"":51,""viewing_time"":389}]","20901","","","","","","","","","","",""
"","","","","","instructions","5","106660","0.0-5.0","[{""page_index"":0,""viewing_time"":4711}]","4711","","","","","","","","","","",""
"true","false","[]","[]","[]","preload","6","108863","0.0-6.0","","","","","","","","","","","","",""
"","","","","","image-keyboard-response","7","112186","0.0-7.0","","3318","tutorial/task_familiarization_images/part 1/01_N160_K90_cliqueRight_question1.PNG"," ","","","","","","","","",""
"","","","","","image-keyboard-response","8","112819","0.0-8.0","","632","tutorial/task_familiarization_images/part 1/02_N160_K90_cliqueRight_question2.PNG"," ","","","","","","","","",""
"","","","","","image-keyboard-response","9","113229","0.0-9.0","","408","tutorial/task_familiarization_images/part 1/03_N160_K90_cliqueRight_question3.PNG","arrowright","","","","","","","","",""
"","","","","","image-keyboard-response","10","113646","0.0-10.0","","415","tutorial/task_familiarization_images/part 1/04_N160_K90_cliqueRight_solution.PNG"," ","","","","","","","","",""
"","","","","","image-keyboard-response","11","114236","0.0-11.0","","589","tutorial/task_familiarization_images/part 1/05_N160_K65_cliqueRight_question1.PNG"," ","","","","","","","","",""
"","","","","","image-keyboard-response","12","116905","0.0-12.0","","2667","tutorial/task_familiarization_images/part 1/06_N160_K65_cliqueRight_question2.PNG"," ","","","","","","","","",""
"","","","","","image-keyboard-response","13","117361","0.0-13.0","","455","tutorial/task_familiarization_images/part 1/07_N160_K65_cliqueRight_question3.PNG","arrowright","","","","","","","","",""
"","","","","","image-keyboard-response","14","117789","0.0-14.0","","427","tutorial/task_familiarization_images/part 1/08_N160_K65_cliqueRight_solution.PNG"," ","","","","","","","","",""
"","","","","","image-keyboard-response","15","118226","0.0-15.0","","436","tutorial/task_familiarization_images/part 1/09_N160_K50_cliqueLeft_question1.PNG"," ","","","","","","","","",""
"","","","","","image-keyboard-response","16","120596","0.0-16.0","","2358","tutorial/task_familiarization_images/part 1/10_N160_K50_cliqueLeft_question2.PNG"," ","","","","","","","","",""
"","","","","","image-keyboard-response","17","121543","0.0-17.0","","946","tutorial/task_familiarization_images/part 1/11_N160_K50_cliqueLeft_question3.PNG","arrowleft","","","","","","","","",""
"","","","","","image-keyboard-response","18","121916","0.0-18.0","","371","tutorial/task_familiarization_images/part 1/12_N160_K50_cliqueLeft_solution.PNG"," ","","","","","","","","",""
"","","","","","image-keyboard-response","19","122753","0.0-19.0","","837","tutorial/task_familiarization_images/part 1/13_N160_K80_cliqueLeft_question1.PNG"," ","","","","","","","","",""
"","","","","","image-keyboard-response","20","123155","0.0-20.0","","401","tutorial/task_familiarization_images/part 1/14_N160_K80_cliqueLeft_question2.PNG"," ","","","","","","","","",""
"","","","","","image-keyboard-response","21","123665","0.0-21.0","","509","tutorial/task_familiarization_images/part 1/15_N160_K80_cliqueLeft_question3.PNG","arrowleft","","","","","","","","",""
"","","","","","image-keyboard-response","22","123993","0.0-22.0","","327","tutorial/task_familiarization_images/part 1/16_N160_K80_cliqueLeft_solution.PNG"," ","","","","","","","","",""
"","","","","","image-keyboard-response","23","124353","0.0-23.0","","359","tutorial/task_familiarization_images/part 1/17_N160_K40_cliqueRight_question1.PNG"," ","","","","","","","","",""
"","","","","","image-keyboard-response","24","125657","0.0-24.0","","1303","tutorial/task_familiarization_images/part 1/18_N160_K40_cliqueRight_question2.PNG"," ","","","","","","","","",""
"","","","","","image-keyboard-response","25","126678","0.0-25.0","","1019","tutorial/task_familiarization_images/part 1/19_N160_K40_cliqueRight_question3.PNG","arrowright","","","","","","","","",""
"","","","","","image-keyboard-response","26","127055","0.0-26.0","","376","tutorial/task_familiarization_images/part 1/20_N160_K40_cliqueRight_solution.PNG"," ","","","","","","","","",""
"","","","","","image-keyboard-response","27","127656","0.0-27.0","","595","tutorial/task_familiarization_images/part 1/21_N160_K70_cliqueLeft_question1.PNG"," ","","","","","","","","",""
"","","","","","image-keyboard-response","28","129522","0.0-28.0","","1865","tutorial/task_familiarization_images/part 1/22_N160_K70_cliqueLeft_question2.PNG"," ","","","","","","","","",""
"","","","","","image-keyboard-response","29","129961","0.0-29.0","","437","tutorial/task_familiarization_images/part 1/23_N160_K70_cliqueLeft_question3.PNG","arrowleft","","","","","","","","",""
"","","","","","image-keyboard-response","30","130381","0.0-30.0","","419","tutorial/task_familiarization_images/part 1/24_N160_K70_cliqueLeft_solution.PNG"," ","","","","","","","","",""
"true","false","[]","[]","[]","preload","31","132868","0.0-31.0","","","","","","","","","","","","",""
"","","","","","image-keyboard-response","32","139386","0.0-32.0","","6516","tutorial/task_familiarization_images/part 2/01_160_80_cliqueLeft_withFeedback_1.PNG"," ","","","","","","","","",""
"","","","","","image-keyboard-response","33","139837","0.0-33.0","","449","tutorial/task_familiarization_images/part 2/02_160_80_cliqueLeft_withFeedback_1.PNG"," ","","","","","","","","",""
"","","","","","image-keyboard-response","34","140160","0.0-34.0","","323","tutorial/task_familiarization_images/part 2/03_160_80_cliqueLeft_withFeedback_3.PNG","arrowleft","","","","","","","","",""
"","","","","","image-keyboard-response","35","140551","0.0-35.0","","390","tutorial/task_familiarization_images/part 2/04_160_80_cliqueLeft_withFeedback_correct.PNG"," ","","","","","","","","",""
"","","","","","image-keyboard-response","36","141110","0.0-36.0","","554","tutorial/task_familiarization_images/part 2/05_160_55_cliqueRight_withFeedback_1.PNG"," ","","","","","","","","",""
"","","","","","image-keyboard-response","37","142972","0.0-37.0","","1861","tutorial/task_familiarization_images/part 2/06_160_55_cliqueRight_withFeedback_2.PNG"," ","","","","","","","","",""
"","","","","","image-keyboard-response","38","143661","0.0-38.0","","687","tutorial/task_familiarization_images/part 2/07_160_55_cliqueRight_withFeedback_3.PNG","arrowright","","","","","","","","",""
"","","","","","image-keyboard-response","39","144065","0.0-39.0","","403","tutorial/task_familiarization_images/part 2/08_160_55_cliqueRight_withFeedback_correct.PNG"," ","","","","","","","","",""
"","","","","","image-keyboard-response","40","144944","0.0-40.0","","878","tutorial/task_familiarization_images/part 2/09_160_70_cliqueLeft_withFeedback_1.PNG"," ","","","","","","","","",""
"","","","","","image-keyboard-response","41","145382","0.0-41.0","","437","tutorial/task_familiarization_images/part 2/10_160_70_cliqueLeft_withFeedback_2.PNG"," ","","","","","","","","",""
"","","","","","image-keyboard-response","42","145755","0.0-42.0","","365","tutorial/task_familiarization_images/part 2/11_160_70_cliqueLeft_withFeedback_3.PNG","arrowleft","","","","","","","","",""
"","","","","","image-keyboard-response","43","146166","0.0-43.0","","409","tutorial/task_familiarization_images/part 2/12_160_70_cliqueLeft_withFeedback_correct.PNG"," ","","","","","","","","",""
"","","","","","survey-html-form","44","153195","0.0-44.0","","7019","","{""gender"":""female"",""age"":""25""}","","","","","","","","",""
"","","","","","instructions","45","154801","0.0-45.0","[{""page_index"":0,""viewing_time"":1605}]","1605","","","","","","","","","","",""
"true","","","","","fullscreen","46","157996","0.0-47.0","","","","","","","","","","","","",""
"","","","","","canvas-keyboard-response","47","163098","0.0-48.0-0.0-0.0","","3601",""," ","[195,606,334,703,511,602,955,617,305,361,663,471,417,262,191,727,188,736,225,750,771,232,521,100,773,163,867,416,479,255,786,82,907,237,879,220,487,993,875,634,260,383,368,219,318,957,326,186,568,584,495,892,227,680,77,146,512,48,527,640,886,185,95,583,581,391,906,970,946,316,788,259,345,514,702,769,63,922,932,958,990,249,75,842,464,494,5,656,615,312,256,221,796,9,111,720,977,222,370,21,967,763,828,976,721,698,516,984,893,939,918,311,423,440,42,244,281,812,353,872,637,352,44,444,40,127,630,284,669,241,850,609,421,397,351,263,753,572,314,190,600,558,83,707,266,657,79,559,616,779,949,968,439,437,418,557,953,754,810,983,938,388,747,268,776,719,803,35,751,883,264,55,207,177,528,638,928,567,515,662,182,502,697,594,346,34,419,974,451,425,780,104,675,891,536,11,942,427,760,302,846,715,445,878,69,148,739,858,613,944,537,903,323,139,544,223,519,155,373,489,650,840,386,473,129,229,940,206,113,252,32,545,852,137,912,959,587,575,212,404,847,169,535,614,576,258,709,57,308,874,601,121,774,398,449,952,406,631,289,410,836,816,250,767,313,472,565,809,17,52,936,687,574,910,670,147,658,992,142,660,997,372,110,792,282,62,179,327,731,204,963,213,29,794,589,135,7,400,980,541,714,700,908,41,180,789,837,876,843,178,797,432,971,118,306,811,989,873,276,499,726,359,851,524,787,723,378,832,732,210,759,590,53,272,483,770,336,369,120,793,251,27,713,943,299,533,505,985,216,728,467,230,744,522,463,636,187,923,621,553,599,813,199,791,801,624,668,474,547,717,897,379,456,654,648,543,804,929,20,164,275,808,175,228,730,0,402,743,611,107,995,59,894,862,355,452,492,890,525,866,458,829,211,145,442,765,245,91,76,914,86,128,405,612,6,457,226,171,749,133,194,350,424,184,653,37,798,167,655,114,96,737,65,784,469,722,126,965,290,465,132,742,830,688,570,664,864,978,818,478,706,898,297,508,16,919,115,696,768,267,821,659,900,827,595,708,481,758,374,396,870,741,446,217,13,503,526,593,718,10,176,534,84,270,209,202,422,235,12,733,783,618,123,98,215,748,560,300,324,884,403,620,542,278,28,140,117,279,941,360,860,868,385,598,506,491,242,988,782,924,887,60,639,999,833,920,144,71,150,309,371,848,365,550,319,181,785,619,409,597,486,102,92,652,817,509,564,428,693,490,420,157,633,500,343,498,845,996,295,667,72,105,724,627,790,280,608,857,19,641,888,78,243,112,649,531,933,196,856,951,301,901,604,563,362,925,214,36,56,31,854,571,413,814,106,293,338,431,103,143,607,710,986,956,869,740,671,461,205,174,644,820,764,831,573,799,239,380,136,298,292,344,795,917,192,802,991,513,4,14,981,853,520,752,625,310,757,122,855,746,64,871,762,729,47,838,125,307,116,950,807,682,58,738,945,43,679,271,690,393,523,200,510,819,551,661,165,569,911,317,462,841,18,399,485,825,998,387,859,50,596,99,3,466,46,198,756,158,384,460,683,90,826,605,51,778,331,233,681,173,882,97,394,68,315,781,296,695,935,342,153,193,138,493,49,236,265,340,291,954,203,257,248,895,699,643,94,913,339,80,87,775,74,815,745,321,8,861,382,676,354,909,218,412,335,283,824,24,835,390,414,839,375,436,328,580,376,972,357,1,341,899,686,435,665,364,285,552,333,119,822,885,261,377,488,30,89,530,33,101,108,628,287,349,430,823,632,497,130,735,865,325,347,332,443,356,673,496,987,921,141,504,480,964,151,966,712,761,45,161,582,705,389,269,689,692,70,438,947,288,734,476,156,274,67,577,578,704,629,610,896,381,674,246,411,470,401,805,38,666,711,109,434,979,358,160,579,73,131,766,253,392,482,88,152,170,540,22,66,2,549,962,61,651,930,450,303,960,475,548,905,685,294,975,562,529,415,566,441,172,532,772,166,927,554,585,915,54,623,240,85,691,518,286,586,224,322,330,755,201,626,81,168,877,902,197,694,39,716,337,23,588,407,672,26,254,677,304,561,408,926,124,159,15,982,93,395,273,447,806,555,366,134,538,329,277,208,948,849,162,231,645,701,363,546,800,684,937,247,448,189,973,904,642,367,477,455,678,635,501,154,517,646,433,454,881,592,961,777,622,591,149,916,348,880,647,725,931,539,556,889,934,25,238,234,459,834,468,603,453,994,426,183,507,429,844,969,863,320,484]","arrowright","0","0","300","1000","[""0085_N1000_K0300_NOCLIQUE"",""0044_N1000_K0300_CLIQUE""]","",""
"","","","","","audio-keyboard-response","48","164697","0.0-48.0-0.0-1.0","","null","audio_feedback/shuffles/shuffle01.mp3","null","","","0","0","300","1000","[""0085_N1000_K0300_NOCLIQUE"",""0044_N1000_K0300_CLIQUE""]","",""
"","","","","","canvas-keyboard-response","49","166226","0.0-48.1-0.1-0.1","","5",""," ","[672,234,579,950,606,48,297,562,521,869,512,2,460,276,985,552,735,948,10,751,691,690,865,155,396,280,666,449,283,229,873,332,368,320,638,809,355,195,902,618,145,33,662,463,414,925,625,36,703,459,144,196,724,441,76,856,55,309,105,104,692,175,38,427,557,803,708,846,263,668,177,984,867,205,67,349,972,912,958,684,244,37,919,541,252,289,170,585,334,509,863,401,29,837,644,843,760,624,255,399,344,336,804,687,100,779,436,713,82,904,543,911,667,921,171,702,630,278,261,250,265,284,785,820,516,530,439,603,405,960,475,258,891,456,274,194,53,686,664,670,643,154,566,58,693,56,413,88,242,373,907,379,173,593,773,528,916,107,81,5,203,517,306,934,273,640,0,894,305,771,767,627,492,462,980,158,159,186,588,716,511,981,828,446,266,927,688,973,987,991,382,847,784,377,915,961,136,468,150,188,872,719,584,993,622,68,582,683,148,990,858,674,387,290,393,641,85,538,590,149,367,918,728,318,764,711,975,369,59,476,80,262,147,518,95,862,108,281,219,932,652,410,514,750,347,722,77,315,840,565,453,712,282,43,151,45,381,498,101,125,267,617,994,886,442,774,547,488,928,685,888,390,814,92,581,419,729,71,17,647,272,450,578,705,790,477,733,665,400,198,461,903,553,348,342,119,340,756,327,523,268,569,747,424,201,841,775,744,762,549,757,905,615,734,24,936,335,123,567,139,350,838,944,215,879,363,190,15,434,325,943,870,246,495,874,204,783,353,73,727,505,977,1,887,650,658,642,539,677,678,9,749,669,496,860,610,287,671,612,649,378,34,254,546,563,435,983,776,98,18,526,535,66,415,772,295,243,745,444,875,635,291,882,153,428,628,293,595,901,181,736,842,500,506,564,41,60,599,914,220,519,47,279,503,129,765,601,474,312,232,594,752,697,629,317,831,157,221,611,40,978,84,4,339,183,407,531,193,406,572,695,338,169,608,227,529,675,331,164,648,992,143,634,397,248,859,725,995,758,302,422,881,57,313,586,592,525,834,763,480,226,330,957,808,122,551,86,288,96,372,131,411,328,829,663,121,25,906,715,761,160,364,134,573,953,26,857,696,455,115,296,213,897,937,619,202,913,64,979,404,613,70,883,384,714,380,93,16,62,210,922,13,231,970,738,189,206,418,361,796,479,768,184,793,138,168,723,128,109,949,855,659,216,116,609,395,49,233,416,14,935,554,141,467,269,614,555,850,732,558,277,721,689,849,341,947,99,679,959,7,854,253,826,559,376,303,207,323,797,187,548,31,989,833,694,152,818,655,179,307,470,285,385,769,534,781,923,868,319,499,709,823,699,458,178,251,986,44,806,212,28,65,360,172,574,485,682,294,766,351,731,701,433,114,631,310,192,199,704,27,63,52,292,802,720,545,835,998,795,481,146,431,777,931,845,591,851,432,472,357,102,247,653,425,75,491,623,917,311,968,165,661,885,740,587,314,359,583,620,974,798,811,813,430,800,755,484,429,374,39,741,816,844,507,161,861,471,878,654,967,482,890,746,788,965,971,51,815,597,223,508,142,824,676,598,852,163,358,133,135,853,792,228,259,54,89,895,426,637,90,955,941,391,532,452,589,996,236,211,403,681,656,352,501,737,956,345,726,6,657,94,946,237,673,32,440,494,602,235,490,791,118,884,939,322,356,343,489,892,651,810,962,91,898,924,333,801,83,819,730,999,464,560,264,789,466,197,217,447,889,550,524,191,929,822,754,117,225,106,753,3,366,79,329,556,866,20,759,933,97,570,778,465,988,900,580,256,140,409,72,370,515,445,976,782,241,908,680,864,786,805,794,383,240,454,646,718,209,371,394,120,316,321,502,30,880,909,938,23,605,245,214,362,457,308,238,836,69,156,899,540,743,249,260,951,304,742,473,420,421,392,821,575,301,748,483,825,893,162,969,275,954,375,964,504,365,257,111,103,596,626,896,87,963,945,398,780,451,388,926,848,600,448,710,61,354,537,12,230,698,239,493,124,21,520,218,408,787,487,700,966,739,839,799,770,167,50,621,22,299,423,185,478,208,527,182,8,940,300,616,443,180,497,604,127,645,402,271,982,389,346,437,660,568,412,707,35,486,952,386,324,812,286,224,510,536,544,112,830,542,577,817,417,137,607,576,326,571,717,126,871,639,132,176,513,807,110,438,42,706,633,337,166,130,910,522,533,74,46,78,997,632,298,920,832,174,11,270,876,200,469,561,877,222,930,113,827,19,942,636]","arrowright","0","0","300","1000","[""0085_N1000_K0300_NOCLIQUE"",""0044_N1000_K0300_CLIQUE""]","",""
"","","","","","audio-keyboard-response","50","167278","0.0-48.1-0.1-1.1","","null","audio_feedback/shuffles/shuffle01.mp3","null","","","0","0","300","1000","[""0085_N1000_K0300_NOCLIQUE"",""0044_N1000_K0300_CLIQUE""]","",""
"","","","","","canvas-keyboard-response","51","168891","0.0-48.2-0.2-0.2","","6","","arrowright","[794,978,255,541,577,173,992,176,318,648,121,605,13,23,744,142,786,458,630,585,599,231,548,415,101,840,672,607,492,782,593,507,963,118,785,533,125,859,189,679,524,355,342,338,608,719,913,222,569,316,741,531,481,995,238,201,729,881,425,260,784,20,177,929,651,487,35,976,21,349,207,453,446,707,356,724,757,351,923,74,566,830,224,234,259,388,76,143,229,184,448,567,403,613,258,590,50,870,865,916,987,359,852,24,584,600,578,523,551,732,37,474,587,735,40,211,766,66,463,108,159,348,166,989,717,326,361,287,455,389,305,282,938,122,827,856,123,382,839,770,126,354,681,163,472,954,736,575,336,261,411,220,819,909,950,982,534,431,34,737,716,449,175,254,62,623,364,276,79,193,939,512,885,294,702,807,574,622,422,25,528,837,172,33,490,157,614,72,99,638,974,692,467,280,877,256,592,205,720,529,17,116,10,695,921,105,114,42,955,395,94,340,416,854,133,991,18,834,383,709,886,191,491,419,115,90,433,985,942,73,821,440,904,269,119,513,594,746,223,561,871,576,267,643,616,772,156,641,497,706,890,215,138,333,363,469,662,324,973,232,700,332,331,480,804,454,113,277,845,347,412,274,915,808,889,370,104,6,310,650,320,110,286,579,473,539,186,646,270,535,617,63,14,602,842,55,928,327,54,565,308,793,972,179,128,986,69,300,379,1,500,100,947,244,272,447,760,478,444,843,235,675,756,850,656,149,799,91,763,44,841,407,545,29,210,833,185,85,836,874,571,749,357,83,911,557,543,483,132,723,765,437,894,525,341,366,914,634,625,26,443,350,853,180,769,781,154,774,674,678,288,390,880,796,514,36,684,615,661,296,423,521,673,39,374,377,826,653,690,919,311,464,502,549,98,895,993,226,606,194,629,750,892,397,465,221,410,935,872,264,329,445,903,45,321,426,295,680,375,820,466,424,11,250,823,604,961,60,958,930,984,284,798,970,728,192,315,120,343,376,290,980,563,46,243,493,944,504,129,468,106,313,387,245,767,171,170,167,307,851,655,776,891,912,896,768,733,897,59,107,988,405,236,380,689,242,293,628,152,898,800,698,558,789,975,866,925,981,103,745,739,969,953,619,203,86,652,38,486,12,49,314,999,918,580,658,28,262,900,16,202,53,87,158,927,937,694,714,75,759,788,715,368,489,435,117,227,669,398,589,4,957,727,810,150,802,596,687,373,394,559,428,710,241,888,136,391,867,253,195,755,562,89,873,964,153,952,610,15,932,378,345,151,647,212,365,181,323,27,330,68,427,78,518,683,601,920,948,414,188,544,239,251,685,482,848,908,328,639,712,325,299,552,499,7,164,401,620,130,64,864,546,943,402,762,344,660,135,771,907,806,775,627,56,200,792,979,824,146,476,97,301,725,791,360,701,868,381,934,93,568,80,556,485,743,187,526,417,817,369,586,645,225,731,682,642,43,61,434,228,778,968,511,738,199,30,77,734,3,457,477,249,219,536,809,527,879,977,503,442,761,747,751,230,399,691,112,510,632,861,882,484,505,248,994,946,0,635,471,339,218,818,899,124,400,367,636,816,665,304,281,633,292,838,266,869,924,127,31,754,461,554,48,618,317,155,829,583,520,582,182,413,884,708,931,752,291,949,595,803,983,509,832,283,88,572,82,519,783,32,667,945,237,822,537,298,386,704,863,971,631,65,813,666,22,560,392,371,517,773,488,506,144,718,790,285,161,297,686,697,857,611,902,670,278,598,165,705,532,346,206,209,860,901,319,573,58,396,51,178,722,240,664,96,671,591,246,275,956,644,753,451,508,353,726,612,787,309,878,92,748,696,621,479,271,887,41,289,846,214,494,855,530,409,84,501,459,657,406,134,626,844,703,693,640,441,139,862,550,47,965,962,758,312,811,538,462,183,883,111,362,522,70,812,384,140,137,217,801,663,233,990,654,831,257,429,162,740,470,906,358,676,352,966,9,496,263,393,588,936,109,779,795,764,917,603,430,547,432,190,436,216,408,805,5,730,169,553,597,711,460,540,495,439,688,847,713,147,372,268,515,204,303,960,555,196,475,334,668,213,967,131,959,95,581,198,609,168,19,148,252,951,71,649,8,145,337,102,828,941,996,780,677,438,933,876,57,421,570,265,797,279,420,637,659,456,742,452,273,910,624,516,160,2,998,52,905,835,997,197,825,814,564,385,815,875,302,777,721,542,893,498,450,404,67,926,849,699,940,418,247,335,858,306,81,141,208,922,322,174]","arrowright","0","0","300","1000","[""0085_N1000_K0300_NOCLIQUE"",""0044_N1000_K0300_CLIQUE""]","","true"
"","","","","","audio-keyboard-response","52","169902","0.0-48.2-0.2-1.2","","null","audio_feedback/right/coin01.mp3","null","","","0","0","300","1000","[""0085_N1000_K0300_NOCLIQUE"",""0044_N1000_K0300_CLIQUE""]","",""
"","","","","","canvas-keyboard-response","53","173735","0.0-49.0-0.0-0.0","","2431",""," ","[487,867,754,442,494,393,629,890,596,922,868,692,780,67,114,539,167,572,297,666,511,984,612,303,716,604,767,913,420,339,153,983,650,411,912,556,447,752,178,815,64,189,281,599,882,862,963,738,555,288,279,985,168,706,106,299,389,109,686,415,828,216,894,565,108,953,0,44,191,857,294,348,162,488,749,562,557,951,43,414,421,446,974,998,46,978,757,435,461,830,474,855,353,240,340,627,713,803,123,802,121,359,203,504,620,993,758,39,333,807,760,472,204,843,568,219,834,631,480,781,180,641,942,12,122,952,245,583,524,150,977,457,336,159,873,969,892,166,478,657,584,182,990,138,527,866,171,280,41,687,567,468,837,518,401,460,296,653,633,264,320,989,528,328,635,201,820,777,380,293,103,997,357,616,425,441,96,55,234,396,566,270,495,278,400,623,778,118,385,236,729,831,503,477,574,739,133,742,937,973,148,143,762,765,578,84,127,308,525,597,883,346,677,674,684,169,347,1,481,208,846,811,707,124,643,149,728,959,753,82,322,851,139,731,552,961,364,464,475,76,87,142,537,424,680,144,835,523,2,345,227,886,412,671,710,649,570,90,16,804,36,249,388,444,878,850,958,704,137,443,785,553,699,314,902,669,817,304,332,437,880,355,691,410,517,796,750,654,163,668,655,285,626,459,261,117,751,672,18,404,975,737,20,670,71,761,75,47,69,900,971,665,254,822,32,52,718,782,483,95,342,274,536,594,59,940,888,679,818,256,881,212,352,14,372,188,696,210,8,769,126,810,456,363,98,202,996,636,151,438,790,714,305,430,734,42,501,979,876,429,848,763,233,341,609,499,31,193,841,454,732,816,337,526,664,967,224,808,630,887,432,800,387,225,395,86,238,582,676,111,292,507,242,445,730,198,338,476,515,83,155,520,85,505,903,422,651,934,58,493,923,448,335,74,450,502,736,884,220,145,519,610,964,4,51,94,805,101,907,741,376,644,286,601,813,265,172,406,695,211,209,309,370,7,25,821,231,573,786,533,313,618,895,379,100,516,646,593,791,54,768,661,282,929,356,756,647,434,693,93,399,383,492,161,920,885,908,564,140,174,89,683,733,869,625,200,290,334,839,252,205,721,413,944,61,544,469,369,9,37,863,547,965,966,705,181,611,602,773,628,614,63,152,772,325,663,859,794,68,727,80,832,824,394,259,257,371,645,992,991,78,45,482,600,715,97,229,759,530,865,105,160,465,941,936,230,381,735,893,49,931,473,587,898,360,247,146,315,132,999,197,458,766,590,239,681,350,581,56,949,589,783,23,698,580,377,170,543,463,529,798,175,128,624,872,165,484,554,988,935,158,845,402,29,561,860,514,218,260,417,924,17,545,365,784,35,110,906,221,774,269,789,436,538,491,856,382,343,157,812,289,717,905,321,34,215,409,452,179,323,918,38,755,419,617,490,416,391,199,112,775,560,361,176,92,26,919,957,685,592,871,776,632,541,637,711,91,788,277,10,943,301,688,506,173,498,588,15,806,939,19,546,312,701,392,311,708,72,968,962,307,136,994,854,522,945,549,141,3,466,534,497,838,809,262,847,439,897,273,283,667,690,66,185,814,156,248,740,187,697,255,206,595,764,24,723,267,62,542,390,183,344,407,116,195,510,310,771,513,60,744,113,196,540,226,521,615,909,947,287,787,6,70,57,119,694,190,489,842,622,331,22,298,712,246,656,324,703,911,976,366,585,709,317,801,634,214,386,925,889,130,591,621,164,271,129,795,467,319,102,243,471,849,5,678,921,658,613,194,823,904,914,378,748,427,956,915,418,115,946,235,284,550,896,720,874,970,770,982,367,799,120,428,13,449,901,131,241,899,368,263,825,826,77,571,548,306,326,107,213,291,836,932,509,535,318,276,917,228,27,479,605,642,11,700,512,916,586,861,496,207,927,374,833,532,640,462,569,662,950,500,88,177,485,619,779,21,53,559,362,486,719,875,375,551,295,79,330,192,840,879,819,724,955,660,995,986,65,300,384,608,531,858,926,558,237,373,275,405,408,910,797,852,575,349,746,682,50,960,675,451,351,73,598,33,232,891,250,423,455,358,258,853,268,431,186,726,933,793,877,743,639,99,747,829,702,217,40,329,987,659,253,272,398,792,222,980,603,607,928,844,579,403,870,606,689,930,433,134,638,648,251,125,440,81,508,28,470,652,327,184,223,563,453,864,147,948,397,302,745,827,576,266,135,673,725,722,981,938,426,316,972,354,154,577,48,30,104,244,954]","arrowright","0","1","300","1000","[""0042_N1000_K0300_NOCLIQUE"",""0023_N1000_K0300_CLIQUE""]","",""
"","","","","","audio-keyboard-response","54","174787","0.0-49.0-0.0-1.0","","null","audio_feedback/shuffles/shuffle01.mp3","null","","","0","1","300","1000","[""0042_N1000_K0300_NOCLIQUE"",""0023_N1000_K0300_CLIQUE""]","",""
"","","","","","canvas-keyboard-response","55","176381","0.0-49.1-0.1-0.1","","5","","arrowright","[148,890,35,739,685,596,628,252,100,294,664,350,571,624,433,659,985,112,277,896,480,158,533,314,319,332,534,825,165,893,161,164,486,78,597,578,892,361,993,181,947,956,755,593,307,434,918,785,6,117,802,966,964,190,21,497,675,818,931,111,504,376,532,209,518,419,2,911,705,225,644,489,560,707,435,331,990,916,862,530,878,588,648,229,537,217,253,474,197,315,846,345,138,255,914,559,951,655,775,864,40,281,373,264,205,606,584,803,913,630,535,820,767,414,882,463,680,610,961,922,695,749,227,894,834,895,600,270,25,740,769,808,461,392,544,380,626,676,570,548,941,402,616,113,984,431,909,645,813,734,720,872,607,733,273,936,153,728,340,53,979,587,491,267,848,34,581,142,762,711,875,20,609,70,538,48,19,92,212,580,736,359,542,549,887,718,900,751,957,689,849,439,401,569,516,950,103,271,577,462,109,318,43,603,726,701,831,172,180,51,565,621,216,247,415,693,163,28,719,684,694,502,4,410,438,72,754,983,836,262,202,342,456,823,55,77,193,819,779,865,355,256,750,854,647,107,196,773,691,357,230,598,32,724,637,658,953,856,725,512,290,748,805,800,477,863,366,224,170,360,437,423,195,760,476,623,915,324,449,608,351,396,293,998,408,928,60,980,927,867,816,122,398,238,958,912,952,622,137,465,26,614,618,464,333,747,33,996,903,143,665,263,627,977,260,349,199,178,555,669,678,378,167,280,554,939,933,149,384,667,179,194,482,368,407,22,96,116,632,794,128,108,787,811,204,62,576,858,218,703,347,929,76,510,495,371,851,828,372,561,493,901,710,558,95,353,221,467,169,382,272,440,639,764,866,986,214,457,753,222,638,390,714,184,38,550,207,631,797,591,959,466,781,997,729,566,967,335,604,166,377,743,688,540,692,246,713,902,709,999,388,393,654,946,240,452,251,144,337,387,175,855,970,443,994,761,67,191,187,219,721,871,338,375,84,531,582,90,341,41,660,505,835,37,514,413,310,89,302,923,291,481,295,274,99,358,301,636,899,311,243,458,186,837,8,447,651,268,421,943,305,364,880,815,963,991,962,136,907,405,906,487,283,617,646,870,884,758,135,553,71,397,460,529,369,541,839,824,682,427,640,24,681,416,494,522,313,258,484,50,615,133,730,406,563,770,672,400,201,810,662,115,118,223,526,379,545,130,7,968,746,556,737,568,265,776,288,424,756,942,525,832,327,436,289,11,771,233,185,656,886,370,450,727,801,162,249,898,56,285,346,321,383,411,601,786,308,940,146,523,744,557,592,391,679,208,539,817,716,126,488,124,206,30,114,778,213,515,840,409,386,960,766,579,68,54,492,296,177,973,102,157,365,790,949,586,889,101,605,686,448,841,276,948,75,930,97,244,454,389,860,935,712,159,845,470,509,46,139,250,804,715,700,671,574,394,611,842,772,978,517,704,891,215,573,428,528,104,455,564,653,499,145,399,796,17,47,657,141,868,629,154,551,635,120,536,732,286,788,888,634,774,412,910,87,74,236,590,759,806,15,572,228,954,567,524,975,306,699,49,633,520,850,151,932,924,562,799,735,429,147,934,210,830,945,814,585,317,63,981,768,354,485,763,93,192,275,66,303,299,231,344,403,652,673,661,189,974,239,649,765,105,642,471,987,543,298,873,989,501,982,926,663,330,670,844,897,789,826,134,57,83,39,717,708,777,904,200,42,519,507,613,129,925,73,874,334,125,362,232,877,309,738,698,921,791,65,459,36,784,336,468,602,430,119,446,513,85,619,23,972,687,445,595,988,82,287,426,374,847,920,140,483,674,496,284,594,5,385,31,883,821,546,780,795,58,876,356,857,254,300,741,79,668,742,1,905,80,226,173,469,547,123,506,503,234,198,917,12,697,257,13,757,64,798,81,69,131,106,683,261,829,677,599,367,432,812,9,323,472,339,441,650,278,722,589,843,88,782,98,473,508,110,490,418,853,885,643,995,792,869,320,3,0,444,156,381,171,27,16,992,348,363,86,203,500,620,625,838,666,793,965,706,94,121,527,282,188,833,174,511,29,852,235,52,971,329,241,404,425,690,259,245,881,809,168,326,861,453,10,150,59,752,612,807,182,417,938,292,731,220,641,827,908,859,14,127,879,552,160,248,451,420,312,132,279,976,723,61,211,266,325,183,269,955,322,575,969,304,822,176,937,297,475,479,237,702,18,944,783,583,352,44,45,152,395,696,745,242,478,91,521,155,919,316,328,442,422,498,343]","arrowright","0","1","300","1000","[""0042_N1000_K0300_NOCLIQUE"",""0023_N1000_K0300_CLIQUE""]","","true"
"","","","","","audio-keyboard-response","56","177369","0.0-49.1-0.1-1.1","","null","audio_feedback/right/coin01.mp3","null","","","0","1","300","1000","[""0042_N1000_K0300_NOCLIQUE"",""0023_N1000_K0300_CLIQUE""]","",""
"","","","","","canvas-keyboard-response","57","182434","0.0-50.0-0.0-0.0","","3710","","arrowright","[111,904,161,590,4,362,869,94,584,422,871,57,354,454,480,564,54,738,799,492,126,242,224,529,843,731,311,666,329,922,621,19,133,131,664,411,715,168,816,569,197,785,80,509,436,113,974,583,375,399,791,796,195,198,943,112,248,988,460,179,104,912,932,592,728,794,707,108,89,780,387,264,404,784,847,142,421,677,919,317,123,752,2,576,266,417,781,964,81,34,721,287,145,489,415,443,281,334,260,813,857,999,176,312,571,575,838,21,858,542,803,44,136,646,579,87,557,234,933,659,823,210,391,413,531,215,891,130,722,937,903,153,79,754,810,24,712,194,269,154,187,946,948,483,52,218,631,879,201,944,924,578,709,169,292,740,902,204,504,965,416,769,385,814,262,624,986,806,884,611,296,451,120,238,672,638,88,412,597,911,865,226,388,304,822,166,894,895,762,545,533,973,547,203,363,381,307,819,245,341,613,474,808,225,641,235,98,559,499,288,837,249,132,481,848,900,660,733,29,366,30,989,386,629,382,487,410,654,465,497,632,663,457,377,394,294,983,558,548,7,697,229,346,673,535,222,458,96,523,702,430,749,383,555,607,700,401,877,432,566,945,652,736,793,127,69,993,324,263,839,620,365,981,355,286,801,271,295,603,976,789,920,299,615,636,809,390,217,899,336,270,589,8,147,618,832,928,772,960,258,74,243,233,231,694,414,610,516,510,957,701,356,498,468,798,669,91,506,306,90,640,767,522,227,167,370,893,367,850,423,403,6,600,500,658,173,352,272,340,396,158,261,732,368,543,686,200,373,534,923,827,83,690,66,276,435,56,372,764,872,178,967,64,107,300,914,84,491,466,508,124,320,137,141,642,797,156,58,699,723,207,68,792,581,651,188,630,955,155,747,139,888,439,239,554,1,720,344,148,562,644,426,918,842,551,971,520,820,335,77,134,273,438,765,572,778,961,825,46,687,470,115,106,236,237,730,870,897,290,353,915,175,935,110,192,898,628,849,887,582,285,719,478,291,177,751,930,303,172,975,109,901,495,467,577,997,541,648,5,591,874,425,560,359,310,812,608,815,358,314,840,99,349,835,776,782,450,259,885,668,277,50,681,41,704,31,553,544,282,771,477,854,14,982,433,695,602,734,278,152,135,332,859,883,252,297,936,876,775,318,913,253,22,280,892,906,485,72,637,503,101,917,160,140,873,711,599,211,45,309,931,486,954,37,759,693,502,275,15,70,164,47,63,378,947,689,526,549,393,308,0,726,501,727,39,157,994,301,25,151,779,777,420,149,959,95,12,440,507,339,333,941,530,635,972,761,268,61,327,846,419,464,998,684,476,980,956,748,347,685,447,202,713,774,979,16,431,910,186,446,786,896,676,565,182,42,739,59,683,170,568,471,841,206,33,927,472,942,783,313,180,283,473,190,802,886,833,991,953,505,459,374,538,23,882,625,455,379,836,325,418,539,55,519,745,511,606,444,985,650,561,338,616,196,609,860,380,183,490,494,829,461,604,274,755,408,821,496,574,484,448,105,708,521,143,657,442,254,479,62,643,361,250,223,219,376,321,11,831,617,852,441,298,834,512,703,674,627,514,463,323,212,279,737,818,596,469,75,427,397,680,729,342,881,73,319,456,165,246,977,251,978,230,181,118,992,863,788,398,580,743,741,598,92,787,744,13,125,939,445,86,614,475,990,845,907,138,593,963,144,493,790,265,656,462,337,184,407,951,240,804,563,326,639,524,389,536,950,402,48,763,805,232,20,360,634,594,540,102,622,322,369,546,817,129,773,205,811,612,855,940,437,828,909,735,958,595,193,60,221,587,350,162,10,718,97,556,517,257,853,655,691,570,807,27,984,116,830,351,750,925,864,453,585,908,119,400,880,53,717,862,482,756,527,929,18,995,331,710,601,348,17,766,43,824,889,409,305,343,567,103,515,267,968,429,952,647,626,117,488,725,122,926,434,653,746,364,256,645,714,890,428,452,216,758,189,800,770,905,688,573,679,345,384,518,228,537,293,330,706,78,916,867,93,934,921,670,742,371,213,866,71,51,875,85,35,67,966,185,949,82,328,76,753,357,868,449,996,316,208,678,667,698,247,768,315,128,861,244,159,532,209,692,424,100,716,49,289,513,619,665,962,661,38,969,795,406,724,65,586,938,392,649,528,550,9,844,191,878,255,675,146,395,987,588,682,26,32,856,3,405,284,760,662,114,28,705,302,171,163,214,150,174,220,552,826,241,671,121,970,36,199,633,40,851,757,696,623,605,525]","arrowright","0","2","267","1000","[""0003_N1000_K0267_NOCLIQUE"",""0040_N1000_K0267_CLIQUE""]","","true"
"","","","","","audio-keyboard-response","58","183426","0.0-50.0-0.0-1.0","","null","audio_feedback/right/coin01.mp3","null","","","0","2","267","1000","[""0003_N1000_K0267_NOCLIQUE"",""0040_N1000_K0267_CLIQUE""]","",""
"","","","","","canvas-keyboard-response","59","186193","0.0-51.0-0.0-0.0","","1209",""," ","[170,963,623,924,62,595,503,948,239,112,7,978,980,78,440,70,243,508,306,555,118,275,665,853,12,335,483,369,385,131,162,613,956,969,760,111,251,957,197,316,169,34,472,265,302,942,656,469,14,203,141,643,320,662,515,374,124,669,635,728,912,619,417,87,885,701,633,255,446,806,45,331,65,627,899,905,622,295,457,467,931,495,126,402,382,767,565,274,954,965,444,80,301,395,234,875,858,282,199,631,83,354,945,750,143,578,999,186,907,50,319,191,673,314,667,136,367,213,379,615,696,702,824,766,426,666,700,110,219,752,865,438,22,414,430,734,33,405,575,361,814,566,655,175,552,237,847,970,216,526,668,679,460,825,765,692,431,721,845,27,10,502,305,973,867,877,784,541,651,5,547,119,884,105,830,798,279,308,979,920,851,740,57,410,29,437,703,829,4,343,870,474,491,757,820,793,349,779,753,743,927,658,204,260,933,522,342,718,698,569,427,837,903,517,157,624,574,871,36,928,745,638,572,297,534,494,891,356,267,159,189,901,493,68,746,519,731,436,772,749,16,713,344,923,104,452,790,24,148,391,636,543,781,135,71,231,447,660,284,807,944,158,794,103,236,846,270,585,1,245,153,735,629,340,876,532,222,987,442,293,581,168,932,909,129,869,889,741,634,831,640,400,848,51,193,102,164,53,950,975,964,300,212,454,509,254,359,536,914,52,855,904,206,100,817,915,961,657,776,709,134,580,664,114,571,854,992,205,691,567,250,921,725,896,787,137,723,520,485,312,588,142,816,317,688,504,764,55,261,641,525,133,761,120,583,786,917,192,411,513,60,23,946,160,868,115,897,183,616,145,707,409,413,594,459,990,686,47,324,79,242,490,273,810,842,782,773,195,408,54,373,934,672,258,618,911,180,908,375,484,906,325,554,155,28,500,235,468,435,223,91,506,315,384,568,894,839,770,762,840,332,66,163,789,217,818,179,280,777,69,949,40,323,125,93,610,682,286,599,292,511,311,800,801,456,943,866,389,758,659,675,607,637,326,747,995,939,704,233,531,674,74,888,378,0,281,19,680,471,401,419,171,499,333,584,811,166,918,289,420,582,719,808,797,989,821,632,518,626,31,253,13,977,106,82,883,935,967,221,310,608,874,149,606,489,705,645,30,90,339,841,822,681,38,3,898,229,880,32,737,303,122,652,101,194,864,277,677,121,505,576,922,647,556,161,996,516,960,18,549,684,523,947,936,539,593,886,321,98,396,348,428,376,577,678,744,455,642,63,559,711,929,601,464,527,380,591,64,210,512,39,717,985,755,381,227,25,412,365,140,649,151,857,661,654,448,283,334,173,214,37,6,59,849,843,346,545,89,15,73,226,501,984,318,795,445,304,587,21,689,475,109,473,48,201,329,407,521,873,663,398,930,815,458,951,42,200,418,294,353,738,9,116,383,699,17,805,952,861,488,225,86,366,313,812,596,971,336,726,604,449,415,146,670,188,597,44,478,165,337,81,266,524,799,771,492,792,96,819,187,434,386,228,551,453,466,360,462,85,650,196,716,184,58,972,986,211,423,732,561,570,470,720,804,998,736,479,496,351,872,648,362,238,429,940,394,262,783,605,482,144,156,26,486,404,983,802,465,535,722,507,220,988,393,687,919,240,20,751,167,218,432,190,388,76,75,544,540,425,276,974,123,77,371,355,981,562,994,61,900,84,363,150,774,232,827,754,497,778,424,127,67,710,327,230,259,589,347,370,95,925,693,246,756,706,224,107,299,172,763,461,630,714,528,916,248,215,558,11,416,272,177,676,982,451,548,72,881,287,621,748,859,182,268,49,352,993,612,538,887,514,644,498,350,991,937,968,450,392,813,138,729,715,364,739,338,46,443,41,836,600,962,796,108,727,639,879,697,628,586,397,564,198,895,671,882,602,530,510,823,244,372,620,860,546,893,99,92,328,941,563,768,345,833,97,487,712,966,592,433,690,708,625,683,862,609,611,724,269,926,863,368,614,959,341,890,139,553,439,241,769,43,94,542,742,35,646,477,913,185,557,550,252,441,296,113,938,271,573,307,590,828,256,298,174,826,533,976,263,309,399,878,788,285,247,653,598,421,730,288,759,128,117,132,152,695,529,422,791,56,835,147,537,357,803,358,832,390,785,850,330,322,694,406,249,685,2,838,733,481,202,278,955,780,560,834,463,181,88,603,176,209,154,809,856,257,208,290,579,892,902,476,953,480,910,264,617,403,387,130,291,178,852,958,997,844,775,8,377,207]","arrowright","0","3","267","1000","[""0036_N1000_K0267_NOCLIQUE"",""0096_N1000_K0267_CLIQUE""]","",""
"","","","","","audio-keyboard-response","60","187245","0.0-51.0-0.0-1.0","","null","audio_feedback/shuffles/shuffle01.mp3","null","","","0","3","267","1000","[""0036_N1000_K0267_NOCLIQUE"",""0096_N1000_K0267_CLIQUE""]","",""
"","","","","","canvas-keyboard-response","61","189863","0.0-51.1-0.1-0.1","","1076","","arrowright","[869,405,127,115,985,758,391,79,726,789,575,465,856,894,285,715,301,520,258,845,77,217,921,596,896,354,750,748,186,821,813,658,397,554,54,834,155,531,191,943,48,709,891,949,687,566,471,634,830,140,537,243,215,538,22,485,70,591,819,806,52,926,283,644,620,9,938,78,616,154,825,256,219,358,512,951,492,478,57,226,282,900,514,695,69,711,138,873,296,373,757,488,119,609,459,380,918,588,495,418,178,166,343,774,675,43,0,371,858,915,61,467,202,91,920,567,824,694,533,788,225,484,187,960,605,341,765,441,662,182,581,352,545,108,995,345,852,439,237,592,62,994,326,822,652,617,980,950,403,670,106,698,568,321,268,548,365,290,152,837,611,560,529,615,306,901,16,893,768,508,470,313,323,430,46,431,208,632,413,245,772,725,597,841,303,117,23,317,903,73,884,708,614,564,72,176,325,832,31,941,122,36,128,17,835,654,648,443,300,727,908,474,68,444,480,236,55,747,933,171,350,468,259,150,628,645,205,981,699,363,32,222,777,353,593,197,206,420,582,344,337,184,583,907,320,643,521,458,161,600,275,630,742,999,159,201,723,53,475,86,840,717,503,850,99,912,63,135,75,402,114,333,889,525,427,594,473,466,203,270,12,663,640,448,954,157,160,716,327,665,404,565,220,3,98,803,460,899,655,40,721,621,429,956,559,39,722,626,118,2,147,393,659,601,263,116,519,517,347,598,491,929,584,318,585,137,580,348,501,189,267,8,535,831,770,37,174,375,262,828,516,261,463,888,812,228,963,376,775,847,292,885,293,946,233,635,892,211,724,607,513,190,483,332,30,210,818,782,657,968,101,608,260,253,539,599,673,829,212,518,362,739,198,314,807,719,688,703,377,983,676,685,679,464,85,839,134,509,234,195,289,66,859,624,863,440,683,84,241,291,700,827,749,755,10,947,356,250,230,322,277,707,904,736,876,741,940,861,271,612,544,113,388,641,779,493,389,183,530,534,649,168,165,149,993,204,702,216,705,693,735,476,104,447,690,287,971,882,987,751,552,965,381,587,254,156,309,450,346,124,678,674,407,677,394,423,331,379,563,801,881,454,857,502,297,974,870,874,312,80,536,744,906,633,887,385,851,816,82,13,167,927,490,794,26,496,304,130,948,780,798,507,577,730,59,498,244,718,769,272,572,410,170,374,223,438,728,895,340,469,409,33,199,387,561,50,281,445,386,753,38,308,7,886,752,746,47,781,844,672,103,92,763,928,1,579,406,213,810,6,145,20,422,814,914,428,604,986,499,686,541,804,653,990,823,543,42,646,452,867,175,248,139,506,773,419,172,964,613,826,932,177,817,720,527,315,855,879,141,477,528,745,19,180,505,959,511,45,664,242,196,378,329,273,342,257,232,733,401,883,853,661,200,100,229,412,28,602,71,324,238,415,786,102,355,878,854,638,123,667,557,60,173,252,792,696,549,158,838,820,426,399,629,181,936,240,129,622,737,689,732,656,795,239,56,868,957,523,209,51,767,992,455,369,437,366,762,945,246,449,302,360,691,647,451,642,494,796,24,111,500,94,456,729,815,589,87,805,787,194,372,988,453,269,627,684,235,562,95,249,880,489,286,697,27,359,546,400,131,462,34,214,756,351,578,976,247,231,701,902,619,842,977,193,105,800,188,710,446,64,349,934,425,738,179,81,368,910,550,107,83,793,955,791,942,266,288,937,227,132,595,551,865,414,785,335,121,497,21,392,961,984,764,224,625,74,67,65,146,913,924,989,991,515,923,574,790,164,524,384,979,482,766,251,310,274,163,784,396,472,846,969,771,866,862,680,110,142,307,833,162,279,864,433,743,651,558,925,623,547,712,811,967,44,421,540,112,416,972,88,681,15,952,975,383,432,637,96,357,713,958,692,299,76,671,461,909,408,276,14,890,714,740,919,860,334,442,395,481,555,367,571,759,109,754,90,802,364,424,361,434,58,169,843,916,411,669,761,144,436,570,125,542,553,982,836,706,603,576,255,316,935,849,898,953,734,319,970,435,931,660,328,586,49,636,486,573,11,35,897,295,133,339,872,97,797,370,973,997,284,871,153,778,338,192,298,221,639,311,590,917,808,606,264,41,390,148,704,265,143,911,522,922,5,151,998,996,218,120,875,930,799,966,417,207,278,336,944,610,280,382,877,668,136,479,4,330,25,305,569,848,631,682,783,962,126,487,398,760,809,93,939,89,618,666,650,905,504,978,776,185,556,731,294,510,29,18,532,526,457]","arrowright","0","3","267","1000","[""0036_N1000_K0267_NOCLIQUE"",""0096_N1000_K0267_CLIQUE""]","","true"
"","","","","","audio-keyboard-response","62","190850","0.0-51.1-0.1-1.1","","null","audio_feedback/right/coin01.mp3","null","","","0","3","267","1000","[""0036_N1000_K0267_NOCLIQUE"",""0096_N1000_K0267_CLIQUE""]","",""
"","","","","","canvas-keyboard-response","63","194163","0.0-52.0-0.0-0.0","","1782","","arrowleft","[3,704,173,892,811,494,652,580,192,583,388,791,297,292,611,800,598,859,472,429,807,203,372,135,937,601,954,618,579,291,347,645,792,560,770,101,245,727,207,999,254,10,730,142,746,205,721,153,446,168,643,114,916,642,996,617,66,689,359,713,425,877,824,661,523,145,690,71,517,306,247,920,926,339,458,265,908,742,337,509,491,231,237,220,83,242,461,64,12,370,404,270,167,74,417,613,421,760,466,853,226,376,503,367,975,691,998,63,812,1,416,896,557,333,217,281,938,129,321,622,780,463,140,24,374,753,629,886,929,165,55,837,635,521,741,932,873,240,898,453,443,596,130,674,136,566,827,451,784,550,682,383,163,278,268,505,381,683,62,931,883,210,253,72,838,43,675,159,660,127,154,881,462,893,984,264,917,974,483,377,572,156,107,132,860,393,553,852,597,385,767,657,915,964,449,35,922,636,530,375,444,806,943,84,828,786,6,91,488,970,183,985,166,991,495,426,366,508,901,418,540,330,111,334,801,857,548,386,884,307,830,570,433,816,599,271,184,897,369,680,470,295,407,298,872,456,356,724,215,122,390,94,28,879,778,195,590,718,455,653,69,941,155,497,942,432,501,685,209,408,58,734,202,124,982,490,736,225,546,41,498,909,528,650,662,45,969,752,518,441,870,623,440,848,350,559,343,151,164,223,176,814,413,23,845,214,500,480,541,239,274,309,396,257,855,959,478,199,169,762,607,754,907,496,945,422,296,610,181,126,75,796,355,204,365,776,409,157,677,924,794,889,820,743,319,233,885,562,280,529,276,723,862,905,775,100,667,50,531,332,224,117,8,34,808,581,772,228,737,301,42,11,250,81,78,765,869,158,524,103,287,286,406,921,336,671,379,482,585,149,554,986,731,112,668,841,747,329,481,864,56,992,641,475,493,823,351,29,208,972,31,948,906,261,633,5,160,912,701,785,282,150,759,706,621,588,545,110,513,437,620,395,744,738,748,547,185,534,699,947,962,170,285,172,53,16,15,77,423,108,138,131,805,983,86,20,299,995,702,712,290,626,504,310,663,335,719,835,229,118,190,563,798,604,536,687,673,196,80,415,311,761,349,448,51,364,430,655,976,612,387,510,248,711,452,148,874,640,326,161,27,116,955,866,352,591,61,120,235,556,457,625,4,676,993,822,305,854,670,106,189,89,973,867,303,18,714,793,485,378,988,735,354,858,198,507,525,574,781,492,989,171,575,708,201,358,236,946,206,593,59,614,85,768,797,308,913,177,844,649,990,93,315,882,871,693,39,263,584,486,840,49,259,933,686,411,318,300,532,180,890,978,696,757,467,561,200,695,705,405,957,819,745,212,331,506,537,476,92,634,65,654,288,424,960,709,402,880,109,632,834,48,952,267,428,875,414,829,715,979,439,293,256,600,788,221,787,679,277,312,903,790,123,606,602,125,842,194,346,832,750,904,789,474,851,619,799,459,527,21,134,70,121,627,818,304,515,895,232,934,956,658,272,360,821,549,868,213,9,380,362,749,630,700,615,783,739,987,468,551,694,266,950,802,246,967,37,648,119,88,222,512,46,756,927,317,327,522,241,538,994,833,571,322,758,186,324,910,238,434,33,397,839,939,928,22,965,777,104,582,568,779,219,774,763,316,595,773,262,846,865,484,605,436,283,703,234,144,902,769,616,464,344,44,519,592,76,342,373,90,804,609,40,273,19,73,684,831,450,249,465,98,644,949,399,567,412,966,471,68,911,544,258,419,651,918,384,36,526,576,803,477,628,843,188,182,914,87,60,340,968,981,888,516,665,681,96,925,47,193,836,284,469,435,729,79,361,900,105,810,67,535,7,647,726,197,216,391,179,826,539,940,244,17,243,692,403,14,608,936,963,328,887,0,427,338,252,363,751,565,438,371,813,899,795,97,400,733,489,137,732,894,849,102,678,447,809,631,577,815,143,279,720,710,178,323,856,38,569,688,639,314,289,357,255,431,30,558,666,57,587,345,782,891,935,878,394,479,564,398,218,961,542,410,930,861,128,146,586,174,113,825,499,971,951,32,919,269,578,728,260,533,603,664,707,977,139,697,511,187,502,211,514,755,589,368,392,389,313,442,341,175,594,716,133,115,460,944,771,850,25,320,251,672,325,766,659,656,953,487,624,26,473,817,847,227,646,152,353,669,147,740,717,230,401,302,95,13,191,876,997,141,764,552,2,958,637,348,863,54,725,454,162,420,638,573,722,294,980,99,52,555,698,82,543,382,275,923,445,520]","arrowleft","0","4","233","1000","[""0047_N1000_K0233_CLIQUE"",""0022_N1000_K0233_NOCLIQUE""]","","true"
"","","","","","audio-keyboard-response","64","195159","0.0-52.0-0.0-1.0","","null","audio_feedback/right/coin01.mp3","null","","","0","4","233","1000","[""0047_N1000_K0233_CLIQUE"",""0022_N1000_K0233_NOCLIQUE""]","",""
"","","","","","canvas-keyboard-response","65","198079","0.0-53.0-0.0-0.0","","1385","","arrowleft","[974,461,309,492,97,458,345,809,986,765,814,71,601,341,245,401,77,55,864,4,961,728,222,701,120,304,827,35,804,567,102,453,432,721,622,106,535,428,137,465,20,823,361,188,828,84,174,103,325,425,532,645,572,499,166,259,537,992,830,836,683,231,235,615,178,876,141,621,773,144,620,999,161,23,752,942,193,915,96,588,134,777,142,995,990,66,63,867,126,175,704,676,546,614,277,234,226,719,149,913,512,936,327,909,543,199,155,495,99,323,772,585,319,581,485,540,840,687,475,547,79,359,224,417,383,545,58,267,445,402,65,657,764,912,908,643,418,732,697,837,870,685,208,670,416,603,132,916,159,520,114,444,596,971,812,143,678,953,481,919,352,711,530,190,575,943,456,471,274,221,886,8,299,949,405,189,286,145,452,975,455,653,917,508,342,272,68,865,73,256,582,426,594,901,249,656,184,316,724,696,533,258,490,818,863,758,468,229,820,747,422,729,410,805,177,824,3,331,989,749,944,946,511,371,404,80,650,736,278,550,296,94,49,332,694,570,843,30,507,353,330,25,11,275,187,112,394,487,480,688,105,233,329,994,815,940,756,681,411,833,281,486,526,651,631,110,562,602,500,160,583,849,766,293,252,135,666,484,751,430,668,966,763,397,156,502,24,528,57,636,169,522,448,407,779,82,600,557,998,617,202,412,498,889,563,665,349,285,633,518,948,33,737,790,616,392,139,47,130,929,220,6,569,152,315,859,493,769,862,335,604,898,573,390,806,297,851,347,984,597,48,587,109,928,399,593,858,959,434,476,627,754,692,829,935,238,324,705,661,800,179,884,925,168,207,117,834,708,598,918,370,702,326,2,968,76,215,541,420,624,807,478,539,911,874,339,200,473,289,561,186,733,565,305,776,265,957,934,538,853,470,154,599,295,216,977,952,354,5,641,632,607,271,210,173,560,938,644,350,716,693,223,510,322,618,869,782,819,227,457,163,939,53,250,978,246,740,872,19,660,374,483,86,655,198,794,796,907,580,382,270,379,896,519,482,180,707,677,413,454,778,803,664,930,262,50,376,816,659,9,301,217,16,170,579,201,78,680,213,340,727,419,662,963,699,101,140,592,13,722,799,878,770,100,93,497,400,291,933,885,474,385,7,781,431,962,236,472,254,396,969,67,75,813,780,839,269,725,642,253,408,605,42,273,164,536,10,298,894,241,723,302,239,787,718,181,41,679,838,424,817,111,439,56,980,129,0,667,970,40,544,125,972,128,176,167,564,45,639,266,491,464,689,625,646,496,731,46,775,136,623,148,761,32,755,494,377,891,854,282,243,314,709,746,433,841,506,133,157,950,300,368,973,789,384,165,568,185,81,985,640,364,648,783,479,808,389,882,469,124,104,36,658,888,914,857,22,784,576,586,893,559,663,355,26,218,920,107,287,74,534,710,937,846,244,715,877,798,527,574,151,609,647,706,726,279,542,759,362,260,306,414,964,703,72,881,811,674,312,363,346,835,118,954,810,268,517,509,760,684,899,386,791,654,194,39,941,595,122,922,52,505,115,589,730,634,868,945,205,671,276,771,214,317,90,447,95,51,357,375,44,423,288,606,203,344,131,92,521,121,672,982,628,738,504,153,230,406,856,409,649,762,195,303,489,438,232,240,191,750,548,852,571,879,619,774,398,745,307,613,712,440,514,310,147,822,924,116,162,802,441,356,211,34,321,446,381,516,21,529,488,713,630,682,890,463,421,294,793,768,61,37,792,60,905,611,334,675,629,551,29,786,900,855,958,127,1,892,87,523,515,313,652,467,979,698,566,366,690,59,714,251,146,861,590,850,801,848,577,947,897,451,395,981,903,393,257,956,372,744,280,673,988,742,460,887,387,960,847,123,459,403,904,923,831,338,237,242,797,119,337,367,388,450,255,462,875,192,795,380,336,360,318,844,549,866,311,284,612,351,391,578,437,283,531,373,158,436,38,720,932,70,910,902,150,637,12,991,525,700,931,951,686,219,753,261,871,821,883,171,996,717,69,997,172,138,554,691,785,965,826,983,873,553,927,503,825,442,955,183,987,308,845,860,767,209,513,358,748,91,31,788,333,369,64,832,895,429,348,967,921,27,17,292,248,626,204,449,247,591,638,477,555,365,206,197,98,926,108,734,735,743,228,584,212,558,328,608,635,113,610,62,880,54,415,976,501,427,28,290,669,695,196,993,89,85,15,182,906,320,443,225,466,435,88,552,263,378,524,83,18,14,757,556,43,842,264,739,741,343]","arrowleft","0","5","233","1000","[""0019_N1000_K0233_CLIQUE"",""0083_N1000_K0233_NOCLIQUE""]","","true"
"","","","","","audio-keyboard-response","66","199064","0.0-53.0-0.0-1.0","","null","audio_feedback/right/coin01.mp3","null","","","0","5","233","1000","[""0019_N1000_K0233_CLIQUE"",""0083_N1000_K0233_NOCLIQUE""]","",""
"","","","","","canvas-keyboard-response","67","202138","0.0-54.0-0.0-0.0","","1468","","arrowright","[177,407,224,198,252,472,278,850,467,888,570,238,759,28,112,593,42,651,623,60,794,122,283,906,302,574,493,488,771,733,25,262,37,24,248,41,681,343,296,77,789,639,325,292,816,226,482,928,615,931,29,142,817,111,412,44,470,209,659,297,428,1,781,528,745,637,354,210,306,893,880,779,827,901,403,747,738,965,792,702,761,421,393,912,396,951,601,337,404,571,56,377,663,760,838,851,31,285,26,720,193,445,181,568,828,957,512,753,727,987,452,78,330,497,353,345,341,845,756,18,978,804,658,481,27,914,873,865,608,722,983,163,137,969,195,698,218,823,726,714,11,423,842,374,439,959,434,809,91,742,161,45,739,621,543,986,21,206,301,0,230,279,947,158,102,40,389,592,968,525,943,414,701,172,552,164,546,223,265,364,117,988,47,53,169,471,958,900,503,961,35,654,645,183,692,318,213,602,440,526,773,39,148,10,231,313,918,237,813,420,670,431,582,463,386,362,309,923,603,700,69,388,461,240,49,591,68,34,522,859,508,104,184,950,90,239,566,167,89,843,221,515,711,180,980,596,272,277,795,99,990,451,713,363,192,131,882,576,952,310,895,399,725,182,966,332,101,15,308,342,138,339,514,679,705,57,839,500,422,802,941,290,109,442,153,460,4,307,385,322,634,903,241,769,826,466,649,394,977,383,664,878,908,300,614,504,197,707,82,946,506,496,432,312,464,585,541,304,510,780,74,960,588,316,599,879,273,321,763,715,370,631,799,735,534,491,119,214,640,243,676,764,426,538,693,228,766,149,84,626,469,871,320,429,217,98,413,746,409,349,550,876,8,527,699,672,447,331,367,617,685,480,548,565,791,575,933,704,93,5,954,635,612,877,152,730,319,87,619,106,509,459,662,13,176,669,630,376,284,940,783,211,170,105,717,864,427,535,680,807,754,453,689,884,798,16,530,776,259,369,554,178,143,136,175,171,841,477,366,671,924,448,118,934,220,971,476,973,70,682,140,820,697,433,63,894,907,430,299,365,831,267,557,751,860,204,613,194,361,600,384,985,166,736,256,604,484,507,23,803,19,157,360,457,896,628,668,458,919,51,108,870,408,216,741,892,126,778,622,147,517,706,22,62,916,81,287,836,644,814,832,355,260,547,902,288,132,229,643,560,202,782,944,674,75,656,294,205,59,562,400,537,340,43,489,121,242,891,30,411,690,532,558,581,661,869,555,151,962,454,883,855,94,964,487,133,695,825,298,915,125,271,652,629,443,352,207,583,920,222,728,416,305,787,889,114,927,564,646,441,141,378,518,660,549,474,835,55,731,609,188,261,32,372,874,577,625,7,767,165,110,3,315,716,775,324,611,904,335,945,867,812,280,419,468,58,524,886,984,561,36,406,356,54,937,641,200,967,655,314,616,929,281,620,545,185,829,201,348,762,830,657,358,9,291,179,539,511,572,80,580,455,939,724,155,405,71,199,589,848,359,849,930,708,14,203,269,982,371,473,390,97,274,368,694,579,718,553,251,529,750,50,86,887,373,624,346,800,586,737,478,513,425,264,186,326,495,885,486,79,72,533,146,729,768,270,642,494,801,921,276,52,996,647,219,145,687,897,938,20,806,999,65,48,989,875,17,483,653,606,872,913,317,247,636,350,992,250,618,974,898,638,333,837,925,113,225,244,610,418,173,648,563,696,424,811,380,936,856,819,686,475,174,853,479,462,777,607,61,351,862,107,926,187,744,677,160,857,235,542,162,748,103,95,734,559,796,435,942,790,833,395,327,905,501,232,976,64,911,594,255,815,392,521,556,129,499,523,233,85,569,793,456,719,788,852,949,868,246,667,154,76,981,909,96,935,135,12,691,444,38,786,436,757,191,573,922,83,684,2,866,397,752,492,678,286,519,963,578,311,323,134,73,772,336,975,382,234,159,910,208,948,824,858,890,531,536,991,465,993,710,357,540,115,189,328,673,979,156,770,33,446,150,650,834,605,821,490,995,597,245,293,379,498,212,846,567,338,955,844,516,703,590,139,956,303,196,438,551,215,123,688,375,227,740,391,805,758,755,344,289,997,257,410,863,127,712,258,253,587,721,732,808,282,810,449,334,675,66,505,683,88,120,398,899,544,381,847,818,401,598,749,249,994,840,743,347,970,665,100,972,190,128,415,46,417,92,627,584,784,266,774,329,785,953,124,402,437,254,666,881,485,168,932,502,236,275,130,632,116,861,723,6,917,268,387,295,822,450,797,709,595,144,765,998,263,520,67,854,633]","arrowright","0","6","217","1000","[""0040_N1000_K0217_NOCLIQUE"",""0008_N1000_K0217_CLIQUE""]","","true"
"","","","","","audio-keyboard-response","68","203138","0.0-54.0-0.0-1.0","","null","audio_feedback/right/coin01.mp3","null","","","0","6","217","1000","[""0040_N1000_K0217_NOCLIQUE"",""0008_N1000_K0217_CLIQUE""]","",""
"","","","","","canvas-keyboard-response","69","205673","0.0-55.0-0.0-0.0","","1000","","arrowleft","[298,400,740,292,140,79,556,787,436,823,839,543,671,181,742,881,733,158,845,757,913,491,451,91,645,47,537,17,676,406,84,468,123,751,773,717,98,396,307,771,355,553,988,137,849,780,949,147,170,901,126,814,644,760,204,864,41,108,83,872,284,557,48,663,253,110,895,917,240,931,735,447,998,599,149,518,625,467,187,967,790,791,540,718,912,322,300,739,646,835,562,244,747,335,982,338,157,78,672,712,621,378,49,565,354,920,808,155,418,527,803,89,432,353,603,632,704,460,483,459,510,825,664,549,201,903,544,154,445,416,485,34,694,380,665,784,660,27,589,176,876,364,13,68,476,530,484,972,339,174,688,826,731,942,627,661,362,906,454,173,662,0,264,169,997,573,847,420,930,383,523,579,966,390,512,127,97,422,143,607,591,904,88,243,306,519,894,683,570,8,217,266,564,639,630,567,690,225,2,194,499,882,477,480,332,623,855,410,324,31,437,124,329,761,57,478,417,995,241,971,854,554,648,974,620,776,481,456,180,202,153,976,934,685,514,722,21,388,315,36,386,916,215,427,116,940,4,852,609,786,444,59,434,624,801,502,333,699,299,65,373,873,647,629,19,552,330,626,245,20,713,45,121,919,918,430,936,344,741,113,285,465,700,254,643,172,152,474,210,929,654,268,725,309,595,472,810,395,74,670,748,948,769,42,707,295,267,119,580,301,276,574,606,705,100,109,635,323,148,67,260,594,669,945,219,464,764,114,921,357,614,290,277,560,492,111,177,686,39,192,18,115,340,533,442,475,963,191,214,608,631,375,990,820,605,248,128,53,774,799,850,479,724,458,414,216,462,578,515,677,753,29,328,841,860,994,926,973,951,830,789,164,125,952,513,33,381,398,377,96,520,581,832,489,197,452,487,56,965,856,743,809,347,572,278,234,719,313,371,831,586,366,551,612,490,122,397,488,281,792,318,939,188,221,120,9,737,496,279,667,877,132,7,655,896,376,239,44,837,167,12,593,706,730,865,909,291,408,446,588,287,30,989,619,227,691,834,535,805,334,429,783,857,73,875,504,443,668,165,190,752,838,501,886,815,932,979,980,497,142,203,369,969,899,1,317,708,75,163,161,303,970,336,842,701,178,528,257,189,133,807,275,897,772,409,160,235,960,727,641,555,159,252,103,547,361,76,470,365,763,536,548,928,759,440,80,461,196,232,274,566,441,370,449,521,69,915,493,93,819,391,325,956,863,531,893,681,55,60,450,283,356,166,729,218,584,765,288,179,270,66,902,516,905,962,840,54,141,738,762,788,590,46,448,348,935,182,812,256,674,923,680,659,592,798,728,302,297,71,968,682,914,321,925,983,423,463,868,953,615,777,262,892,341,559,305,851,382,308,104,312,168,981,393,134,494,829,610,438,711,879,779,692,213,726,954,575,52,604,859,577,768,907,486,171,583,539,987,955,545,675,374,498,569,37,524,828,363,61,426,613,101,507,129,106,130,223,311,817,22,813,889,542,238,785,587,319,836,957,90,224,428,800,628,43,796,563,576,259,898,482,781,314,517,734,11,349,568,403,82,286,289,419,721,402,162,529,368,750,585,384,891,958,975,26,367,345,927,23,117,602,352,601,343,112,64,874,40,58,651,657,457,282,732,360,695,296,294,94,910,818,379,782,186,633,693,797,327,746,933,233,146,272,714,431,209,656,198,924,273,679,102,749,977,92,280,28,505,72,138,118,766,755,453,689,703,206,996,638,858,265,642,404,95,802,439,131,878,900,144,811,806,794,38,261,561,495,744,959,715,846,77,342,867,884,229,359,326,793,687,770,212,775,200,754,888,908,885,778,16,156,435,821,469,389,658,526,546,86,870,978,6,14,500,534,848,922,51,351,304,249,598,208,87,941,222,558,271,666,541,405,887,946,50,346,869,392,506,964,415,634,293,710,640,251,62,702,649,255,650,413,185,228,944,767,70,337,269,237,985,230,636,999,246,509,236,986,550,993,617,756,961,372,697,387,263,522,684,866,532,10,596,611,136,861,411,652,250,822,871,5,207,151,824,15,844,622,525,183,471,984,63,511,883,816,538,24,736,425,503,247,226,947,466,394,696,880,81,350,937,992,616,407,99,862,745,698,709,401,723,843,795,316,720,421,205,211,804,637,938,310,135,943,195,231,678,618,85,653,890,950,399,258,199,3,473,331,105,320,673,582,145,455,385,991,32,597,107,833,412,175,600,220,433,911,571,716,853,242,184,508,827,150,758,424,139,358,35,25,193]","arrowleft","0","7","217","1000","[""0082_N1000_K0217_CLIQUE"",""0052_N1000_K0217_NOCLIQUE""]","","true"
"","","","","","audio-keyboard-response","70","206658","0.0-55.0-0.0-1.0","","null","audio_feedback/right/coin01.mp3","null","","","0","7","217","1000","[""0082_N1000_K0217_CLIQUE"",""0052_N1000_K0217_NOCLIQUE""]","",""
"","","","","","canvas-keyboard-response","71","209531","0.0-56.0-0.0-0.0","","1290","","arrowleft","[405,26,761,524,291,360,726,209,58,159,225,847,744,265,120,51,286,797,270,981,219,100,647,798,168,709,863,547,361,383,394,48,183,336,665,749,795,874,477,137,516,118,212,267,88,966,648,357,232,570,619,242,204,369,897,719,457,673,128,725,356,688,164,224,366,192,529,243,306,307,271,608,345,991,389,886,462,427,25,228,111,542,101,338,920,576,928,678,692,112,415,955,634,772,967,422,474,229,712,925,757,655,854,319,575,35,484,92,539,604,75,190,178,347,921,453,175,848,174,695,764,226,149,946,509,184,969,552,451,953,278,693,458,411,240,842,376,343,86,351,535,398,728,776,106,788,69,470,193,571,815,456,222,906,871,126,758,430,727,964,557,562,561,207,875,697,373,915,511,433,302,962,527,548,862,794,560,949,391,746,121,216,878,580,859,397,481,499,157,621,151,904,804,810,269,22,20,310,414,246,811,454,839,331,998,500,288,525,793,280,971,237,395,750,52,498,982,888,354,959,796,253,348,851,320,166,826,720,34,447,272,609,64,583,799,460,144,544,386,599,849,431,261,987,148,475,976,569,483,632,997,494,594,536,327,49,582,365,73,893,43,50,76,497,40,784,581,824,907,298,355,102,610,745,828,996,816,56,765,134,600,439,326,181,179,382,787,771,215,521,734,299,737,223,63,636,300,340,37,163,442,755,235,694,756,295,931,145,99,468,545,883,9,119,751,668,731,425,47,107,844,297,652,835,553,633,939,585,36,852,206,482,480,803,472,238,563,61,285,289,602,83,540,957,32,722,685,303,625,813,490,985,245,363,403,785,495,62,767,82,533,885,908,812,620,587,334,972,801,762,684,855,662,592,370,651,156,877,489,558,66,894,438,260,91,72,325,132,146,947,680,89,346,317,927,644,551,639,786,231,578,292,702,380,262,747,881,635,309,912,780,400,807,773,406,208,919,898,531,428,696,654,217,263,887,104,434,109,167,170,837,503,98,782,901,973,586,805,690,162,266,645,990,817,313,150,802,934,487,674,445,247,988,305,664,579,401,155,730,884,833,597,977,18,860,158,677,689,554,711,624,189,993,412,392,31,8,733,735,669,38,185,520,659,28,281,768,274,566,926,508,880,77,656,416,641,916,239,741,283,443,85,333,205,444,485,315,845,843,332,864,432,258,909,122,671,653,410,194,532,506,707,230,658,954,766,507,407,872,819,478,589,80,781,108,136,588,423,39,660,983,467,371,873,738,30,774,296,911,556,241,896,836,388,505,598,567,549,322,339,736,611,914,463,941,646,461,808,752,622,65,337,308,165,523,93,687,492,344,829,95,502,760,930,154,6,420,279,324,612,717,236,857,264,359,518,304,675,800,616,501,435,945,257,138,856,775,329,293,792,706,117,522,12,905,409,364,691,640,294,29,275,922,630,779,68,519,312,84,568,700,143,14,377,1,838,759,311,827,105,41,2,211,526,419,740,682,910,301,703,196,980,199,103,197,994,404,123,629,710,33,853,530,493,74,923,791,686,679,277,24,254,951,342,15,642,974,513,961,541,396,368,724,948,900,418,67,417,670,142,565,623,202,663,469,770,968,437,0,913,890,638,718,21,865,840,284,87,321,17,127,471,233,950,198,895,667,153,60,936,789,195,515,834,441,952,818,187,290,53,362,350,113,180,221,858,173,186,436,341,831,141,248,965,572,203,723,94,902,517,528,399,666,381,11,932,23,958,866,276,841,823,176,739,129,657,715,45,869,681,450,218,384,110,330,820,273,116,701,514,464,940,256,191,868,591,510,390,613,698,147,372,378,210,649,943,929,713,704,876,353,809,287,892,476,601,387,486,643,777,778,90,3,42,57,822,188,328,637,763,352,46,960,626,975,512,986,124,595,440,672,903,323,358,227,614,81,491,999,244,421,452,938,114,732,944,55,504,963,282,573,374,978,956,213,783,385,769,314,631,537,249,466,78,743,5,546,234,335,603,584,152,979,367,564,182,534,577,605,937,459,790,705,177,408,54,879,699,70,933,935,13,850,379,924,615,821,627,574,473,130,446,131,989,375,161,429,754,97,918,200,10,596,889,814,252,7,455,729,650,125,16,201,44,618,917,402,19,714,251,559,160,716,543,753,742,617,426,992,268,942,683,899,870,550,590,606,172,171,79,861,479,135,71,449,846,593,984,349,413,448,318,27,555,806,676,830,607,220,970,882,4,832,214,995,748,708,628,255,316,424,250,538,139,721,867,169,891,96,465,393,825,59,140,496,488,661,115,259,133]","arrowleft","0","8","200","1000","[""0036_N1000_K0200_CLIQUE"",""0075_N1000_K0200_NOCLIQUE""]","","true"
"","","","","","audio-keyboard-response","72","210519","0.0-56.0-0.0-1.0","","null","audio_feedback/right/coin01.mp3","null","","","0","8","200","1000","[""0036_N1000_K0200_CLIQUE"",""0075_N1000_K0200_NOCLIQUE""]","",""
"","","","","","canvas-keyboard-response","73","213279","0.0-57.0-0.0-0.0","","1154","","arrowleft","[487,379,670,345,87,10,991,146,846,675,197,135,244,636,802,141,12,179,243,424,358,894,562,979,490,97,571,476,728,474,630,363,685,153,85,757,694,309,554,72,672,383,842,858,574,247,699,493,41,4,871,45,168,50,399,833,856,412,37,276,16,529,192,736,458,738,615,354,53,804,620,613,502,583,121,369,910,820,628,343,58,747,191,829,397,585,79,621,439,778,377,522,193,284,814,707,426,796,544,843,209,974,181,128,39,605,422,582,198,746,362,228,654,319,337,321,530,549,706,123,839,119,231,249,759,740,428,962,234,724,528,446,510,993,855,900,469,968,28,373,152,56,80,235,95,32,853,597,268,344,902,844,227,506,331,187,462,110,229,176,484,451,831,17,931,828,2,569,933,221,751,876,327,59,325,956,623,93,603,795,489,51,298,26,330,261,763,194,539,200,82,785,86,705,180,659,391,912,537,459,47,282,69,709,54,403,717,144,126,434,240,948,577,887,588,104,452,440,989,23,361,466,629,812,453,625,248,882,567,394,782,680,485,558,874,326,21,566,552,90,347,186,801,957,218,732,456,367,559,913,206,289,657,773,307,686,170,783,708,754,355,405,24,811,805,832,509,34,600,932,947,713,619,94,470,387,998,316,477,873,498,125,964,822,266,297,587,737,357,107,879,578,375,350,533,463,323,305,417,885,211,752,49,265,414,581,48,598,624,753,875,302,651,411,854,764,610,978,136,958,890,826,120,332,593,860,3,74,634,217,768,644,241,415,242,114,409,607,499,118,692,963,314,461,273,183,547,946,371,150,267,196,683,761,380,29,25,809,507,877,98,715,939,351,591,312,923,823,535,576,881,555,308,163,129,523,386,800,897,951,936,508,203,280,720,921,185,898,999,662,423,693,512,775,904,421,893,730,283,151,106,139,145,935,589,320,914,202,513,13,138,230,612,941,182,967,9,797,742,481,349,745,891,966,766,112,339,631,648,972,75,990,789,285,131,616,127,865,679,378,30,400,483,674,984,419,869,219,611,609,586,545,666,722,454,216,845,850,543,735,702,602,393,944,398,518,841,572,888,827,596,78,479,416,861,142,663,460,784,772,755,381,70,681,652,762,46,849,299,682,313,655,739,563,18,776,281,66,149,660,519,5,340,427,133,872,467,61,525,688,472,568,617,143,169,862,336,973,60,807,154,215,124,429,691,726,970,64,269,550,867,57,140,38,953,356,787,556,35,633,689,727,838,315,771,646,677,604,786,306,895,847,257,942,449,851,557,406,848,392,385,360,924,212,101,76,765,701,837,317,546,304,673,911,205,252,749,504,292,236,348,857,89,413,396,496,658,884,618,222,992,649,794,907,538,245,71,88,62,494,102,779,290,288,408,643,117,723,137,473,551,33,404,237,918,262,982,433,388,668,988,40,719,291,863,201,328,579,73,395,868,880,997,195,335,580,7,920,287,376,806,983,346,950,491,448,258,295,952,825,725,711,981,639,922,20,293,42,401,443,943,246,334,272,627,758,264,437,676,934,909,22,790,678,435,661,505,270,480,780,77,954,520,799,113,311,697,432,172,716,836,744,647,301,656,718,511,642,684,835,729,318,819,333,63,540,166,260,635,515,253,664,159,372,100,638,919,27,226,430,640,162,526,712,366,793,420,653,224,704,641,503,68,937,687,534,945,817,442,239,390,15,189,160,364,11,410,889,208,210,584,6,256,14,495,626,220,645,500,834,859,233,769,338,595,516,407,864,255,148,374,977,916,564,774,238,207,770,278,165,214,105,67,524,985,961,903,896,352,995,263,450,788,486,721,457,130,810,254,464,536,969,614,438,671,475,177,115,650,818,852,975,938,541,286,816,906,632,232,425,824,781,542,994,322,103,928,949,132,36,553,743,599,497,329,175,122,277,714,44,637,250,960,478,791,455,81,55,84,798,251,965,899,570,157,592,971,199,431,447,158,134,777,532,940,987,767,821,741,696,465,929,92,976,905,575,501,986,259,19,91,43,0,803,108,223,548,917,188,700,733,996,111,606,161,695,173,389,925,866,514,959,870,225,815,573,31,418,560,213,527,710,482,441,590,303,296,915,156,813,1,384,760,167,698,690,561,955,521,594,402,310,294,147,608,341,930,353,300,665,517,109,468,164,703,565,171,365,174,748,184,926,116,667,883,444,901,750,178,359,324,492,792,342,601,886,734,830,370,731,471,382,204,808,65,756,279,878,892,52,488,622,190,980,271,669,96,840,908,368,531,8,155,99,275,927,436,445,274,83]","arrowleft","0","9","200","1000","[""0096_N1000_K0200_CLIQUE"",""0100_N1000_K0200_NOCLIQUE""]","","true"
"","","","","","audio-keyboard-response","74","214274","0.0-57.0-0.0-1.0","","null","audio_feedback/right/coin01.mp3","null","","","0","9","200","1000","[""0096_N1000_K0200_CLIQUE"",""0100_N1000_K0200_NOCLIQUE""]","",""
"","","","","","canvas-keyboard-response","75","217246","0.0-58.0-0.0-0.0","","1449","","arrowright","[22,392,886,755,686,520,962,893,780,171,352,547,849,641,153,271,651,700,670,861,621,625,991,510,335,558,904,597,113,711,50,989,187,710,856,902,26,201,39,0,740,919,254,894,234,67,2,534,504,635,698,340,857,526,718,808,649,889,708,119,186,450,593,814,155,987,855,620,509,117,623,749,517,199,99,317,219,816,37,206,172,277,279,54,389,267,867,513,860,484,925,495,82,270,312,654,91,815,291,77,213,42,600,212,691,330,53,640,748,810,716,787,481,665,608,805,9,754,569,750,343,772,185,689,682,64,576,405,40,850,645,845,523,943,794,247,433,564,804,922,966,393,594,492,928,320,401,451,661,497,485,84,162,76,25,321,245,476,257,761,381,491,457,146,224,421,118,306,43,683,244,344,560,990,163,390,415,880,453,714,885,472,633,211,6,429,94,164,539,33,445,595,738,617,736,895,262,98,301,191,938,660,684,891,765,953,616,122,176,786,997,634,108,512,18,52,290,514,532,877,918,443,350,135,231,983,507,441,759,4,802,774,611,395,783,12,198,781,63,396,192,771,753,479,27,705,471,490,603,628,283,529,563,313,920,601,506,470,337,123,830,897,196,104,428,90,525,870,208,742,561,903,896,315,825,260,209,285,355,828,57,839,986,944,207,818,85,713,391,930,49,182,21,777,74,293,945,184,826,241,137,719,764,658,757,100,249,541,876,310,124,246,553,745,477,157,268,908,844,537,240,659,732,258,17,923,34,369,687,174,950,862,308,397,737,411,993,583,799,356,410,480,733,939,892,195,843,630,775,282,371,216,430,932,440,519,387,586,511,363,226,934,292,374,309,425,214,380,942,662,722,353,639,779,111,322,589,905,461,842,41,95,81,847,797,606,557,459,59,956,181,587,538,715,650,602,632,299,275,469,456,768,424,69,48,487,859,975,144,14,97,166,272,56,116,200,455,668,647,140,721,377,566,551,739,500,414,286,105,351,978,357,911,152,442,941,361,618,591,773,438,720,518,115,790,725,879,980,220,785,217,752,568,465,769,475,567,985,685,910,46,444,573,486,695,951,251,961,550,314,446,5,354,362,756,273,55,194,831,841,165,1,836,236,811,36,89,914,948,38,688,806,302,436,872,227,66,384,776,359,549,528,32,79,865,958,664,727,728,888,516,766,582,170,540,221,466,72,266,871,644,462,813,697,795,274,80,960,498,823,238,751,326,592,58,70,946,852,360,717,505,151,203,837,957,248,706,418,964,947,142,747,535,167,284,571,154,35,798,188,610,367,829,882,624,884,605,527,408,531,901,599,515,342,11,75,379,969,364,637,331,858,494,345,731,556,78,824,120,864,96,177,311,981,646,596,915,71,502,47,422,741,129,376,875,454,93,709,648,542,940,572,373,643,543,403,533,680,223,439,838,296,413,136,29,127,232,545,629,420,916,995,791,205,323,873,378,432,412,801,218,555,280,627,478,696,909,156,253,427,890,458,936,988,269,760,496,949,416,402,704,577,261,907,180,626,464,65,959,834,926,68,107,744,263,604,19,974,349,229,409,994,382,112,452,394,175,139,968,973,788,404,693,294,812,574,619,656,474,562,130,906,578,417,652,448,832,347,233,149,250,7,128,463,638,488,366,83,161,878,298,406,575,341,679,86,225,237,900,924,243,521,770,31,598,976,426,449,110,399,609,434,984,103,173,160,809,763,134,767,467,28,3,672,622,145,657,30,724,23,300,730,372,584,178,276,329,734,666,883,328,840,607,707,998,712,109,554,132,952,334,158,288,817,388,524,979,88,383,631,723,304,400,678,559,933,385,552,295,937,190,881,580,743,44,536,590,702,501,101,106,821,215,242,259,853,863,325,324,339,365,803,468,386,204,996,669,287,796,222,460,848,955,642,131,726,548,51,435,866,913,746,126,125,970,887,281,675,898,327,141,169,437,482,570,965,789,45,927,375,846,179,256,674,963,303,235,982,297,833,61,667,653,613,252,544,835,102,793,546,332,228,522,121,585,676,143,62,431,202,73,87,210,819,503,183,493,278,473,912,193,701,992,931,868,692,807,255,60,967,197,579,333,419,929,336,971,15,851,489,239,673,899,346,735,319,114,147,499,699,565,762,358,423,8,398,694,148,338,977,778,874,168,508,307,581,677,370,784,954,189,827,447,663,318,917,159,972,820,368,265,133,16,305,612,24,614,782,703,636,854,13,10,921,615,588,138,316,999,92,655,348,935,822,289,729,483,869,681,407,530,690,792,230,20,150,800,758,671,264]","arrowright","0","10","183","1000","[""0093_N1000_K0183_NOCLIQUE"",""0067_N1000_K0183_CLIQUE""]","","true"
"","","","","","audio-keyboard-response","76","218242","0.0-58.0-0.0-1.0","","null","audio_feedback/right/coin01.mp3","null","","","0","10","183","1000","[""0093_N1000_K0183_NOCLIQUE"",""0067_N1000_K0183_CLIQUE""]","",""
"","","","","","canvas-keyboard-response","77","221581","0.0-59.0-0.0-0.0","","1845","","arrowleft","[275,589,575,799,226,312,256,961,910,612,542,231,848,44,832,84,254,988,266,413,806,935,807,801,635,190,702,271,69,317,135,649,708,292,137,818,199,337,566,578,470,167,407,452,587,417,907,143,403,325,30,371,695,85,815,925,811,685,488,560,497,792,362,937,130,959,740,816,144,134,705,384,637,209,677,911,313,118,114,253,823,329,87,671,269,105,802,794,286,686,914,126,593,117,106,899,237,630,712,441,434,406,27,656,245,378,880,755,140,201,34,579,188,889,5,228,791,344,528,585,982,355,557,25,373,615,758,91,544,349,281,263,280,939,613,22,902,268,972,385,741,335,53,299,278,774,514,41,182,996,133,262,236,873,518,64,113,155,546,975,872,949,393,875,498,884,208,56,427,858,531,210,61,810,829,940,195,421,869,782,819,446,420,527,605,697,8,664,571,757,477,468,257,449,235,857,623,442,629,761,454,713,859,93,956,632,255,844,445,57,722,39,950,494,535,163,328,429,626,724,28,455,486,716,610,556,489,947,456,348,668,404,49,68,904,350,691,976,598,987,447,430,341,780,886,931,746,81,443,537,207,861,633,184,216,754,149,970,169,159,913,357,415,775,368,768,874,496,564,709,200,737,16,990,603,838,699,517,35,390,145,392,422,636,591,67,778,247,264,306,650,259,88,847,448,285,854,707,928,42,405,563,797,785,160,432,804,639,871,679,876,18,916,62,110,964,398,814,493,965,471,711,65,704,962,346,11,108,435,541,109,331,655,58,119,461,267,795,878,951,752,600,183,577,979,725,892,279,669,150,966,197,225,747,161,648,812,172,491,347,361,881,983,295,100,141,244,503,241,314,596,731,122,625,180,70,433,960,382,17,165,771,777,522,992,205,652,509,194,73,107,10,952,642,288,482,688,764,921,891,178,739,103,55,431,957,196,726,766,223,424,367,734,77,627,168,303,997,123,773,342,835,473,48,786,991,425,153,696,104,929,989,99,158,682,624,242,700,977,953,370,945,358,920,715,33,582,203,736,750,356,866,474,397,828,290,80,893,502,221,345,52,796,21,924,998,112,574,710,472,78,411,287,138,465,327,888,788,789,204,297,915,258,116,419,3,249,805,729,856,620,308,936,340,622,529,302,181,438,76,583,332,646,0,243,261,177,665,54,934,882,74,230,101,824,440,803,387,504,485,214,793,475,694,631,238,562,753,227,366,657,96,827,26,408,594,510,296,549,316,958,813,870,698,895,450,276,967,520,399,647,13,738,47,206,592,817,83,849,215,359,933,597,800,948,760,539,744,217,890,897,218,462,45,675,830,839,97,676,581,680,127,681,938,954,459,641,478,437,781,336,821,115,765,343,354,90,234,735,289,376,969,917,728,507,896,211,926,706,320,202,386,505,879,95,40,326,265,125,402,894,516,525,501,500,808,614,756,136,798,590,684,868,588,767,985,394,7,492,1,820,92,779,617,687,534,94,483,389,748,60,339,783,185,63,533,460,567,464,374,723,170,749,971,919,481,634,142,19,714,383,23,43,834,720,363,293,284,601,20,640,769,51,616,763,232,484,942,220,981,607,586,14,251,508,12,381,561,146,770,274,193,511,995,213,643,469,572,841,999,863,521,602,372,311,260,309,82,294,930,418,176,833,984,79,323,658,666,845,86,310,946,674,37,618,595,252,519,66,865,229,673,885,524,693,689,395,151,974,733,941,860,111,458,751,851,678,423,651,154,409,9,457,790,855,727,908,530,224,186,667,283,164,621,877,396,171,599,559,532,129,867,864,273,909,487,298,611,526,467,365,862,400,272,304,282,853,89,453,558,762,15,439,436,495,973,157,660,187,584,466,784,732,277,513,717,46,776,98,978,426,410,568,305,604,932,463,553,898,826,360,721,479,173,852,102,239,338,742,444,219,189,324,369,148,162,730,38,922,380,900,846,837,212,375,968,703,787,555,174,156,809,540,580,659,318,330,842,905,71,628,552,644,250,692,175,416,843,131,4,551,515,391,609,619,222,353,547,536,32,654,401,75,670,608,128,377,179,986,307,120,772,943,428,538,2,743,906,719,570,850,901,301,333,379,545,166,822,300,840,321,944,690,550,315,50,569,565,831,59,718,745,638,139,554,955,334,543,548,233,192,132,240,480,291,29,683,6,124,883,72,887,661,663,476,31,24,191,248,672,836,993,198,351,573,653,121,36,322,512,319,645,246,927,759,903,606,147,490,825,451,152,994,980,576,918,388,963,352,270,506,662,523,701,414,499,912,412,364,923]","arrowleft","0","11","183","1000","[""0033_N1000_K0183_CLIQUE"",""0096_N1000_K0183_NOCLIQUE""]","","true"
"","","","","","audio-keyboard-response","78","222573","0.0-59.0-0.0-1.0","","null","audio_feedback/right/coin01.mp3","null","","","0","11","183","1000","[""0033_N1000_K0183_CLIQUE"",""0096_N1000_K0183_NOCLIQUE""]","",""
"","","","","","canvas-keyboard-response","79","226744","0.0-60.0-0.0-0.0","","2568","","arrowright","[46,490,578,765,723,59,374,556,635,826,761,998,658,566,950,623,872,118,207,433,392,145,497,591,11,3,822,176,172,913,232,630,677,89,297,129,941,140,510,226,192,694,909,800,963,905,507,270,438,81,446,418,873,997,358,216,271,718,862,827,187,457,621,410,849,853,376,796,106,856,528,53,720,121,991,285,306,396,158,707,242,721,618,896,745,478,83,390,828,560,469,686,292,241,784,492,373,748,266,948,484,557,580,834,203,767,783,430,175,200,529,411,782,326,750,747,670,279,558,892,867,626,899,359,198,639,332,339,164,185,436,194,685,596,585,695,366,274,850,889,481,603,964,970,780,276,929,43,912,652,983,559,819,601,575,598,321,762,257,52,144,125,75,219,966,625,467,412,300,583,846,193,958,875,539,323,307,697,251,979,432,610,656,110,73,122,730,325,729,654,296,95,311,741,461,934,259,715,703,760,702,414,27,766,260,452,393,756,33,710,287,758,25,990,859,809,740,305,493,579,660,503,824,524,181,38,689,415,179,571,486,511,604,244,789,636,113,136,322,425,234,738,914,576,120,288,42,882,24,463,628,284,806,74,574,986,147,722,879,672,952,984,818,743,590,786,668,2,506,103,458,904,554,791,361,330,617,47,878,543,662,980,501,664,13,255,771,894,191,8,866,755,805,922,534,275,336,55,485,124,389,283,403,341,881,648,115,502,683,213,693,640,731,549,864,421,641,795,646,874,562,967,746,398,516,495,205,936,602,993,453,647,157,291,252,974,254,443,829,785,381,480,363,328,851,886,802,704,754,651,429,247,88,351,404,976,599,705,918,942,841,37,953,985,642,424,553,643,804,763,645,345,606,318,681,286,238,21,876,309,86,749,803,586,594,589,293,597,370,142,777,917,161,439,816,295,385,517,527,268,752,394,494,369,994,261,327,20,840,724,189,163,45,334,845,112,51,138,564,449,600,139,928,870,925,915,78,644,372,520,946,69,93,622,960,663,405,482,842,135,737,736,19,968,932,797,217,533,728,937,613,713,265,466,774,159,999,413,709,60,239,299,821,567,514,505,513,26,631,365,280,427,499,471,680,813,871,250,39,289,472,233,210,114,387,688,231,79,716,460,384,221,798,104,340,587,313,201,290,109,619,442,868,951,206,445,498,468,669,965,787,956,428,335,85,629,885,132,836,77,734,395,9,401,82,197,779,605,675,214,225,901,987,884,240,847,515,386,895,352,347,451,793,690,153,406,764,541,1,448,570,143,437,426,551,364,397,196,565,420,454,667,100,15,464,186,906,863,126,945,825,633,678,607,609,218,927,162,184,212,338,488,22,301,902,54,180,269,830,28,223,521,835,496,735,422,308,542,92,230,419,298,465,41,996,744,808,168,582,167,939,137,133,220,673,696,536,227,282,487,105,649,23,407,811,770,665,6,940,861,975,71,34,742,333,547,356,844,831,29,70,128,921,573,473,815,408,691,4,388,509,971,545,173,776,972,935,627,852,10,263,900,823,331,483,854,512,450,165,530,377,431,324,655,926,68,611,320,14,36,814,228,518,792,256,57,531,661,706,977,588,243,329,169,131,209,152,982,16,314,447,924,65,908,102,711,476,76,166,679,262,869,772,348,58,911,839,855,700,117,224,550,577,768,382,409,258,195,907,888,435,130,267,887,719,44,337,880,546,947,417,160,584,650,537,919,222,751,249,63,961,682,930,477,593,316,362,62,962,0,992,561,310,84,769,890,475,883,858,563,732,148,891,380,101,48,781,954,31,757,540,717,659,119,97,178,91,319,272,357,535,434,548,111,56,988,544,569,462,612,773,204,525,687,634,246,455,838,108,957,701,264,479,778,523,440,235,474,150,7,657,273,638,208,877,759,245,969,727,920,346,156,526,532,229,349,107,155,893,522,312,123,812,127,459,595,733,916,810,857,949,32,303,739,978,183,938,753,171,281,552,342,12,555,726,5,989,572,94,933,149,353,794,146,64,368,973,714,456,174,182,177,508,608,898,367,500,712,519,199,170,817,632,17,248,692,470,676,99,383,72,237,775,616,371,354,416,790,848,923,400,40,302,441,833,211,725,788,375,944,61,151,807,278,955,897,399,202,67,637,141,674,615,98,360,708,799,903,402,304,355,294,391,344,90,865,860,837,444,801,568,684,843,188,504,943,910,134,423,698,995,66,491,378,653,253,581,666,538,277,832,620,624,671,80,215,96,343,350,317,190,489,699,18,50,35,981,154,116,379,592,959,49,236,820,87,931,30,315,614]","arrowright","0","12","167","1000","[""0020_N1000_K0167_NOCLIQUE"",""0053_N1000_K0167_CLIQUE""]","","true"
"","","","","","audio-keyboard-response","80","227735","0.0-60.0-0.0-1.0","","null","audio_feedback/right/coin01.mp3","null","","","0","12","167","1000","[""0020_N1000_K0167_NOCLIQUE"",""0053_N1000_K0167_CLIQUE""]","",""
"","","","","","canvas-keyboard-response","81","232358","0.0-61.0-0.0-0.0","","3074","","arrowright","[576,415,248,981,75,953,523,957,481,588,768,637,987,72,131,621,492,907,611,573,361,627,441,661,681,458,262,376,83,475,68,158,12,816,822,558,155,635,90,190,793,351,223,903,792,327,911,718,86,657,400,411,93,424,844,275,30,743,508,577,135,931,153,58,430,193,980,2,76,546,176,533,296,760,258,81,67,398,292,841,211,263,883,299,756,677,646,214,219,538,45,146,649,97,848,393,801,909,702,154,940,493,759,890,648,278,770,288,543,474,169,237,552,239,906,462,369,597,724,307,380,432,789,983,854,771,687,855,306,202,251,606,787,127,149,559,79,731,77,469,644,720,89,993,790,617,377,444,952,213,947,105,98,808,501,796,96,715,709,4,408,891,934,879,180,487,235,894,615,740,379,522,268,685,84,335,923,827,766,454,282,215,843,240,346,982,446,291,647,614,368,540,310,673,769,304,676,990,241,970,520,461,625,920,358,803,919,443,986,151,774,324,695,201,316,730,783,995,87,893,157,586,164,314,629,555,515,830,962,203,421,47,196,269,679,170,968,880,478,63,65,668,812,222,120,64,200,375,24,173,23,276,111,129,544,150,133,728,152,714,312,609,592,741,46,104,511,56,753,99,527,966,849,634,638,683,139,266,690,842,31,723,500,936,233,585,600,765,807,298,583,26,163,734,326,782,663,949,14,518,371,22,799,688,285,742,388,525,348,569,754,123,948,423,168,295,433,717,575,969,820,465,332,623,882,80,553,502,352,0,748,308,435,391,641,507,255,41,541,284,323,92,418,16,935,43,122,350,182,534,13,536,590,360,659,684,313,32,55,610,216,869,431,221,28,48,489,217,119,5,353,599,497,290,835,505,910,598,805,404,175,839,898,945,114,850,794,749,124,504,183,490,694,436,496,985,148,667,132,229,618,25,762,315,699,851,390,374,565,616,367,185,382,521,36,414,38,260,477,775,192,236,751,325,853,650,531,745,471,829,888,220,513,974,488,971,73,955,451,733,563,593,798,287,557,44,996,750,656,337,179,6,660,596,60,19,900,864,21,142,652,303,94,852,800,440,39,35,549,118,383,101,653,184,186,758,654,899,273,272,819,448,305,944,453,846,244,509,537,594,212,716,665,410,334,359,932,422,669,689,245,795,386,811,250,591,116,336,698,722,397,682,826,389,877,871,167,15,420,622,680,188,228,318,761,519,340,833,392,342,246,524,701,912,666,719,156,872,746,601,997,710,459,494,925,636,967,976,1,406,960,678,472,226,309,49,234,691,224,640,107,88,426,267,785,528,479,887,449,727,286,584,464,338,988,207,875,815,427,231,582,777,480,347,642,943,210,486,27,550,662,612,331,624,512,788,655,831,767,343,975,998,535,455,345,159,370,865,908,491,602,395,786,82,613,959,675,321,405,697,950,230,283,51,529,921,419,457,317,11,713,631,100,608,470,532,858,965,264,580,279,372,736,861,999,59,407,50,333,994,187,674,265,913,42,545,755,62,160,607,837,311,438,473,707,300,825,738,763,437,227,924,686,302,365,447,870,402,823,177,802,595,194,892,468,784,271,739,757,729,403,628,961,873,329,874,145,498,147,238,671,289,603,939,840,485,354,412,927,773,942,294,34,856,834,113,364,328,570,530,915,548,270,633,574,884,452,18,972,951,859,889,301,136,356,857,381,551,878,579,571,429,20,881,320,322,117,821,29,208,172,218,922,70,95,162,425,589,399,467,779,344,696,824,281,252,620,161,886,560,439,832,747,138,561,516,143,53,866,554,69,700,378,482,764,703,973,564,639,450,387,630,144,578,8,40,293,651,916,926,357,130,568,712,744,604,838,394,103,483,567,587,341,366,806,904,362,499,102,619,626,134,445,261,206,106,503,938,954,845,978,442,297,992,247,189,737,257,259,862,732,54,828,112,991,253,918,37,867,917,514,3,896,814,91,165,242,198,9,670,460,963,725,330,706,928,937,721,933,605,373,204,581,495,752,930,108,946,256,905,401,556,166,384,791,860,339,434,110,409,517,897,964,396,885,85,385,417,125,191,902,484,199,989,254,274,979,781,277,542,958,428,876,66,547,510,74,672,416,78,658,895,506,128,772,181,797,780,33,562,195,817,115,178,705,7,17,280,643,121,645,914,632,141,726,804,539,232,225,137,61,956,847,109,711,818,836,126,243,863,692,813,809,929,466,664,171,708,57,197,810,71,977,778,526,349,209,476,693,205,901,463,984,140,413,10,363,355,456,174,776,868,572,319,249,735,704,566,941,52]","arrowright","0","13","167","1000","[""0081_N1000_K0167_NOCLIQUE"",""0087_N1000_K0167_CLIQUE""]","","true"
"","","","","","audio-keyboard-response","82","233346","0.0-61.0-0.0-1.0","","null","audio_feedback/right/coin01.mp3","null","","","0","13","167","1000","[""0081_N1000_K0167_NOCLIQUE"",""0087_N1000_K0167_CLIQUE""]","",""
"","","","","","canvas-keyboard-response","83","236403","0.0-62.0-0.0-0.0","","1507","","arrowleft","[702,90,770,475,244,579,970,149,573,980,738,124,668,310,768,736,754,628,734,909,764,686,135,955,594,267,488,623,388,171,765,744,995,14,39,637,864,174,675,947,679,94,187,63,773,855,301,96,207,632,569,673,828,190,716,40,999,469,315,146,729,507,372,534,575,949,708,530,453,354,436,250,400,653,247,370,336,886,899,410,456,137,455,452,595,201,434,144,215,131,351,784,799,300,253,401,782,447,222,715,849,57,123,223,306,208,119,627,885,203,906,560,742,813,70,285,648,681,724,108,969,586,104,361,205,439,935,450,514,100,48,669,919,559,326,976,313,584,179,271,86,182,591,377,173,755,46,42,420,603,869,704,571,353,389,538,278,811,56,921,845,958,818,122,872,322,465,258,148,68,129,991,185,541,360,170,344,695,348,162,878,209,17,975,700,154,425,523,505,483,597,224,462,275,960,477,689,844,633,914,989,551,32,345,293,428,89,12,385,327,972,776,407,837,485,163,423,775,913,895,817,55,305,492,10,772,801,518,165,745,737,841,19,226,696,615,863,299,358,227,920,570,422,444,15,540,217,756,496,929,519,826,272,787,823,350,867,459,618,476,311,95,850,64,433,84,561,232,792,188,418,862,665,229,520,24,746,356,865,831,977,743,807,319,27,761,652,993,181,720,676,448,442,211,412,145,378,833,846,701,51,642,330,752,624,657,80,506,239,332,614,166,236,600,892,547,915,631,140,612,297,596,160,965,466,824,430,246,155,338,254,982,994,798,161,607,349,535,650,324,67,216,684,270,636,758,79,760,797,763,815,847,136,228,314,380,932,337,102,390,856,2,842,167,59,601,287,646,340,576,274,983,206,667,399,777,957,471,774,394,605,731,359,379,625,251,917,210,373,65,200,860,147,480,973,945,289,928,76,421,876,334,481,609,493,212,468,339,753,779,903,726,788,383,987,634,812,866,904,713,263,281,443,292,649,117,721,60,819,1,50,830,610,238,589,640,464,931,30,563,416,126,441,235,658,328,199,355,515,435,404,417,22,839,393,369,727,114,362,431,543,309,692,893,568,611,257,835,113,748,284,521,18,889,237,964,97,365,608,495,451,494,546,723,598,198,259,243,785,382,626,482,374,690,622,907,98,804,688,553,424,37,816,528,954,343,997,28,810,790,142,426,757,36,832,204,261,429,139,590,978,241,268,460,735,249,962,318,20,656,968,730,795,852,308,54,486,524,478,101,671,411,912,654,719,255,132,808,635,759,910,35,291,666,604,718,107,613,661,990,621,592,472,184,694,31,487,141,814,489,619,445,159,873,697,317,427,85,41,714,121,868,942,133,550,158,499,23,651,896,69,45,588,175,341,643,16,884,952,803,582,552,585,780,924,858,526,368,454,508,120,806,381,202,875,593,127,397,402,9,740,329,409,43,732,87,894,691,458,728,838,193,717,934,93,887,693,664,172,966,474,599,778,357,567,331,218,706,186,926,248,525,827,820,432,0,106,682,940,298,587,437,516,408,153,457,882,387,498,13,151,939,73,77,891,645,152,312,583,683,802,698,225,280,984,511,180,638,363,874,937,861,859,659,898,767,366,544,680,916,629,196,398,564,749,252,21,449,707,192,616,725,974,951,169,509,375,58,320,581,662,527,168,503,230,532,900,195,240,446,848,191,125,440,542,925,762,901,406,741,71,641,134,663,554,822,941,809,342,491,189,857,562,956,536,948,971,384,574,467,266,502,290,644,678,566,7,769,295,578,405,307,938,392,497,927,78,617,572,75,213,277,685,992,537,923,396,49,783,981,510,413,110,118,705,953,304,6,918,677,883,38,395,986,72,836,834,943,376,391,178,829,711,288,789,273,47,111,897,545,156,880,61,549,674,66,793,81,851,364,296,183,283,53,606,279,415,946,533,130,710,555,414,109,539,840,26,500,565,484,771,709,34,967,3,164,890,367,461,29,854,346,796,479,105,794,670,490,655,870,699,115,176,620,888,517,157,233,791,219,979,347,91,602,138,260,703,262,438,44,74,905,988,902,92,580,959,504,922,950,998,294,853,242,231,750,214,4,660,245,712,197,33,766,501,335,786,800,933,62,630,963,177,116,265,739,103,473,577,548,879,639,463,911,961,647,944,333,325,529,825,269,687,871,470,843,221,112,88,82,930,321,881,821,908,83,403,303,672,557,5,220,256,419,522,286,985,747,194,264,877,143,150,556,558,8,316,936,386,733,323,512,11,234,25,513,805,352,52,282,371,276,996,531,128,751,781,722,99,302]","arrowleft","0","14","150","1000","[""0014_N1000_K0150_CLIQUE"",""0072_N1000_K0150_NOCLIQUE""]","","true"
"","","","","","audio-keyboard-response","84","237399","0.0-62.0-0.0-1.0","","null","audio_feedback/right/coin01.mp3","null","","","0","14","150","1000","[""0014_N1000_K0150_CLIQUE"",""0072_N1000_K0150_NOCLIQUE""]","",""
"","","","","","canvas-keyboard-response","85","241689","0.0-63.0-0.0-0.0","","2665",""," ","[562,796,625,538,993,264,319,699,975,968,116,979,166,452,493,858,609,54,529,843,624,204,957,962,868,468,478,287,802,675,514,559,620,417,630,866,755,847,288,13,88,605,227,607,998,736,695,638,522,331,244,724,144,924,767,410,52,520,98,824,703,641,849,385,976,905,423,393,686,192,752,372,697,421,350,188,434,712,563,923,779,542,853,242,106,257,776,41,99,766,708,599,867,797,654,835,85,541,122,78,759,840,194,317,851,245,283,681,321,94,382,25,927,577,698,195,147,556,575,756,322,454,956,274,564,585,535,547,426,991,439,890,678,7,907,601,891,523,75,460,893,428,739,79,36,705,726,811,206,261,902,448,992,175,135,959,892,348,635,537,284,84,240,12,146,241,837,16,612,718,190,694,217,467,120,895,719,86,558,68,320,552,500,333,930,152,637,644,346,337,221,660,203,159,621,43,839,717,734,455,822,69,592,278,343,193,679,844,231,397,249,239,267,591,151,233,999,131,553,247,505,55,881,442,580,14,437,814,124,850,471,926,775,388,932,618,806,653,842,225,44,925,997,148,137,436,659,846,208,841,687,252,508,250,728,647,939,140,860,392,438,476,416,389,498,938,38,780,622,139,418,324,931,836,670,132,169,15,271,831,186,995,33,885,297,534,713,913,882,955,774,974,519,246,920,852,657,782,461,504,211,648,770,101,503,626,579,154,17,912,945,731,128,567,656,758,715,232,145,883,298,677,524,876,710,966,820,627,692,104,742,335,325,11,332,807,6,898,600,458,272,594,18,880,857,646,293,701,899,387,951,639,356,908,253,20,555,149,789,961,277,419,37,526,118,762,425,466,113,809,720,484,173,826,894,792,155,481,358,610,198,666,359,353,328,141,409,557,265,469,357,573,59,260,973,102,200,51,218,282,869,479,733,301,829,205,900,737,472,182,700,285,810,634,738,269,827,339,709,804,296,614,490,623,603,179,489,429,527,949,875,702,543,273,691,259,549,156,983,355,189,943,248,616,787,872,871,326,725,650,714,310,986,757,960,81,56,71,27,497,40,133,859,153,921,360,487,433,275,207,631,492,121,280,446,295,306,138,642,784,672,665,977,4,444,808,506,854,550,911,123,9,311,119,511,445,795,935,532,474,948,560,62,289,347,450,363,378,586,374,412,651,863,652,989,684,125,773,473,449,183,117,57,813,229,383,304,29,268,994,746,711,947,414,318,680,422,210,904,299,365,658,502,377,685,308,922,838,915,794,597,87,568,554,142,22,914,732,706,772,42,313,749,565,255,258,53,178,352,47,21,424,856,587,58,45,90,482,376,730,980,688,108,354,127,574,373,340,673,67,596,965,704,470,491,598,404,628,407,952,581,864,384,327,696,338,617,903,170,832,662,475,46,64,990,380,226,187,663,96,785,984,109,643,778,89,689,933,791,420,544,390,879,674,181,403,729,477,588,964,937,781,499,361,693,465,459,509,281,49,546,234,294,760,456,929,50,583,91,103,48,31,453,901,263,10,35,5,640,61,176,946,63,870,815,223,615,906,801,707,613,590,874,83,279,26,578,408,940,649,270,427,516,2,345,23,551,341,582,1,761,916,821,512,985,74,82,865,19,256,823,80,405,462,292,24,786,368,783,919,323,629,517,741,536,967,168,219,740,834,753,163,381,305,668,171,501,799,664,496,443,228,561,593,671,669,440,286,548,110,676,201,531,934,30,209,495,745,727,39,364,818,312,107,763,379,494,329,971,747,262,917,366,515,530,196,941,886,751,237,344,743,76,220,889,878,129,371,750,97,483,887,411,399,315,682,367,632,349,633,978,342,112,518,375,771,402,276,877,805,793,370,401,817,162,238,722,136,100,800,764,435,251,988,953,236,972,910,431,645,873,197,667,589,386,400,777,897,212,545,72,996,314,584,488,830,464,130,636,528,177,828,510,540,432,862,595,848,185,391,918,963,199,533,115,224,486,525,351,576,825,987,95,457,958,230,928,93,572,569,65,114,202,485,683,655,362,950,395,8,451,300,180,833,513,896,604,369,174,303,619,105,92,134,216,942,0,723,716,845,884,602,754,735,430,570,167,172,73,566,765,213,803,969,819,970,158,330,164,661,608,981,150,28,334,143,936,191,396,3,254,790,111,406,235,415,160,521,954,441,34,60,690,611,266,336,463,215,184,32,744,309,982,161,447,816,165,721,539,768,302,571,290,944,507,222,243,480,769,316,798,909,861,394,157,291,70,398,413,855,66,214,307,812,126,606,77,788,748,888]","arrowleft","0","15","150","1000","[""0051_N1000_K0150_CLIQUE"",""0094_N1000_K0150_NOCLIQUE""]","",""
"","","","","","audio-keyboard-response","86","242754","0.0-63.0-0.0-1.0","","null","audio_feedback/shuffles/shuffle01.mp3","null","","","0","15","150","1000","[""0051_N1000_K0150_CLIQUE"",""0094_N1000_K0150_NOCLIQUE""]","",""
