"success","timeout","failed_images","failed_audio","failed_video","trial_type","trial_index","time_elapsed","internal_node_id","view_history","rt","stimulus","response","nodes_order","correct_response","graphs_couple","accuracy","block_index","presentation_index","clique_size","graph_size","graphs_names"
"true","false","[]","[]","[]","preload","0","1408","0.0-0.0","","","","","","","","","","","","",""
"","","","","","pavlovia","1","1738","0.0-1.0","","","","","","","","","","","","",""
"","","","","","instructions","2","6545","0.0-2.0","[{""page_index"":0,""viewing_time"":4079},{""page_index"":1,""viewing_time"":725}]","4804","","","","","","","","","","",""
"true","false","[]","[]","[]","preload","3","9485","0.0-3.0","","","","","","","","","","","","",""
"","","","","","instructions","4","84189","0.0-4.0","[{""page_index"":0,""viewing_time"":1342},{""page_index"":1,""viewing_time"":1229},{""page_index"":2,""viewing_time"":1109},{""page_index"":3,""viewing_time"":833},{""page_index"":4,""viewing_time"":914},{""page_index"":5,""viewing_time"":786},{""page_index"":6,""viewing_time"":803},{""page_index"":7,""viewing_time"":853},{""page_index"":8,""viewing_time"":951},{""page_index"":9,""viewing_time"":1007},{""page_index"":10,""viewing_time"":1204},{""page_index"":11,""viewing_time"":805},{""page_index"":12,""viewing_time"":714},{""page_index"":13,""viewing_time"":909},{""page_index"":14,""viewing_time"":1038},{""page_index"":15,""viewing_time"":950},{""page_index"":16,""viewing_time"":3763},{""page_index"":17,""viewing_time"":363},{""page_index"":18,""viewing_time"":561},{""page_index"":19,""viewing_time"":586},{""page_index"":20,""viewing_time"":473},{""page_index"":21,""viewing_time"":614},{""page_index"":22,""viewing_time"":1386},{""page_index"":23,""viewing_time"":647},{""page_index"":24,""viewing_time"":539},{""page_index"":25,""viewing_time"":602},{""page_index"":26,""viewing_time"":579},{""page_index"":27,""viewing_time"":769},{""page_index"":28,""viewing_time"":633},{""page_index"":29,""viewing_time"":687},{""page_index"":30,""viewing_time"":742},{""page_index"":31,""viewing_time"":2348},{""page_index"":32,""viewing_time"":1357},{""page_index"":33,""viewing_time"":1186},{""page_index"":34,""viewing_time"":478},{""page_index"":35,""viewing_time"":497},{""page_index"":36,""viewing_time"":617},{""page_index"":37,""viewing_time"":667},{""page_index"":38,""viewing_time"":463},{""page_index"":39,""viewing_time"":556},{""page_index"":40,""viewing_time"":504},{""page_index"":41,""viewing_time"":564},{""page_index"":42,""viewing_time"":638},{""page_index"":43,""viewing_time"":667},{""page_index"":44,""viewing_time"":32941},{""page_index"":45,""viewing_time"":1071},{""page_index"":46,""viewing_time"":373},{""page_index"":47,""viewing_time"":294},{""page_index"":48,""viewing_time"":275},{""page_index"":49,""viewing_time"":283},{""page_index"":50,""viewing_time"":255},{""page_index"":51,""viewing_time"":278}]","74703","","","","","","","","","","",""
"","","","","","instructions","5","85258","0.0-5.0","[{""page_index"":0,""viewing_time"":1068}]","1068","","","","","","","","","","",""
"true","false","[]","[]","[]","preload","6","94563","0.0-6.0","","","","","","","","","","","","",""
"","","","","","image-keyboard-response","7","161622","0.0-7.0","","67058","tutorial/task_familiarization_images/part 1/01_N160_K90_cliqueRight_question1.PNG"," ","","","","","","","","",""
"","","","","","image-keyboard-response","8","162991","0.0-8.0","","1367","tutorial/task_familiarization_images/part 1/02_N160_K90_cliqueRight_question2.PNG"," ","","","","","","","","",""
"","","","","","image-keyboard-response","9","164020","0.0-9.0","","1028","tutorial/task_familiarization_images/part 1/03_N160_K90_cliqueRight_question3.PNG","arrowright","","","","","","","","",""
"","","","","","image-keyboard-response","10","164431","0.0-10.0","","410","tutorial/task_familiarization_images/part 1/04_N160_K90_cliqueRight_solution.PNG"," ","","","","","","","","",""
"","","","","","image-keyboard-response","11","165221","0.0-11.0","","789","tutorial/task_familiarization_images/part 1/05_N160_K65_cliqueRight_question1.PNG"," ","","","","","","","","",""
"","","","","","image-keyboard-response","12","166165","0.0-12.0","","943","tutorial/task_familiarization_images/part 1/06_N160_K65_cliqueRight_question2.PNG"," ","","","","","","","","",""
"","","","","","image-keyboard-response","13","167007","0.0-13.0","","841","tutorial/task_familiarization_images/part 1/07_N160_K65_cliqueRight_question3.PNG","arrowright","","","","","","","","",""
"","","","","","image-keyboard-response","14","167383","0.0-14.0","","375","tutorial/task_familiarization_images/part 1/08_N160_K65_cliqueRight_solution.PNG"," ","","","","","","","","",""
"","","","","","image-keyboard-response","15","168109","0.0-15.0","","726","tutorial/task_familiarization_images/part 1/09_N160_K50_cliqueLeft_question1.PNG"," ","","","","","","","","",""
"","","","","","image-keyboard-response","16","168713","0.0-16.0","","603","tutorial/task_familiarization_images/part 1/10_N160_K50_cliqueLeft_question2.PNG"," ","","","","","","","","",""
"","","","","","image-keyboard-response","17","169326","0.0-17.0","","612","tutorial/task_familiarization_images/part 1/11_N160_K50_cliqueLeft_question3.PNG","arrowleft","","","","","","","","",""
"","","","","","image-keyboard-response","18","169675","0.0-18.0","","347","tutorial/task_familiarization_images/part 1/12_N160_K50_cliqueLeft_solution.PNG"," ","","","","","","","","",""
"","","","","","image-keyboard-response","19","170037","0.0-19.0","","361","tutorial/task_familiarization_images/part 1/13_N160_K80_cliqueLeft_question1.PNG"," ","","","","","","","","",""
"","","","","","image-keyboard-response","20","170388","0.0-20.0","","350","tutorial/task_familiarization_images/part 1/14_N160_K80_cliqueLeft_question2.PNG"," ","","","","","","","","",""
"","","","","","image-keyboard-response","21","170721","0.0-21.0","","331","tutorial/task_familiarization_images/part 1/15_N160_K80_cliqueLeft_question3.PNG","arrowleft","","","","","","","","",""
"","","","","","image-keyboard-response","22","171153","0.0-22.0","","430","tutorial/task_familiarization_images/part 1/16_N160_K80_cliqueLeft_solution.PNG"," ","","","","","","","","",""
"","","","","","image-keyboard-response","23","171781","0.0-23.0","","627","tutorial/task_familiarization_images/part 1/17_N160_K40_cliqueRight_question1.PNG"," ","","","","","","","","",""
"","","","","","image-keyboard-response","24","172191","0.0-24.0","","409","tutorial/task_familiarization_images/part 1/18_N160_K40_cliqueRight_question2.PNG"," ","","","","","","","","",""
"","","","","","image-keyboard-response","25","172881","0.0-25.0","","689","tutorial/task_familiarization_images/part 1/19_N160_K40_cliqueRight_question3.PNG","arrowright","","","","","","","","",""
"","","","","","image-keyboard-response","26","173645","0.0-26.0","","763","tutorial/task_familiarization_images/part 1/20_N160_K40_cliqueRight_solution.PNG"," ","","","","","","","","",""
"","","","","","image-keyboard-response","27","174035","0.0-27.0","","389","tutorial/task_familiarization_images/part 1/21_N160_K70_cliqueLeft_question1.PNG"," ","","","","","","","","",""
"","","","","","image-keyboard-response","28","174361","0.0-28.0","","325","tutorial/task_familiarization_images/part 1/22_N160_K70_cliqueLeft_question2.PNG"," ","","","","","","","","",""
"","","","","","image-keyboard-response","29","174685","0.0-29.0","","324","tutorial/task_familiarization_images/part 1/23_N160_K70_cliqueLeft_question3.PNG","arrowleft","","","","","","","","",""
"","","","","","image-keyboard-response","30","175025","0.0-30.0","","339","tutorial/task_familiarization_images/part 1/24_N160_K70_cliqueLeft_solution.PNG"," ","","","","","","","","",""
"true","false","[]","[]","[]","preload","31","175335","0.0-31.0","","","","","","","","","","","","",""
"","","","","","image-keyboard-response","32","178707","0.0-32.0","","3371","tutorial/task_familiarization_images/part 2/01_160_80_cliqueLeft_withFeedback_1.PNG"," ","","","","","","","","",""
"","","","","","image-keyboard-response","33","179209","0.0-33.0","","501","tutorial/task_familiarization_images/part 2/02_160_80_cliqueLeft_withFeedback_1.PNG"," ","","","","","","","","",""
"","","","","","image-keyboard-response","34","179645","0.0-34.0","","436","tutorial/task_familiarization_images/part 2/03_160_80_cliqueLeft_withFeedback_3.PNG","arrowleft","","","","","","","","",""
"","","","","","image-keyboard-response","35","180074","0.0-35.0","","427","tutorial/task_familiarization_images/part 2/04_160_80_cliqueLeft_withFeedback_correct.PNG"," ","","","","","","","","",""
"","","","","","image-keyboard-response","36","180461","0.0-36.0","","384","tutorial/task_familiarization_images/part 2/05_160_55_cliqueRight_withFeedback_1.PNG"," ","","","","","","","","",""
"","","","","","image-keyboard-response","37","180874","0.0-37.0","","412","tutorial/task_familiarization_images/part 2/06_160_55_cliqueRight_withFeedback_2.PNG"," ","","","","","","","","",""
"","","","","","image-keyboard-response","38","181277","0.0-38.0","","402","tutorial/task_familiarization_images/part 2/07_160_55_cliqueRight_withFeedback_3.PNG","arrowright","","","","","","","","",""
"","","","","","image-keyboard-response","39","181661","0.0-39.0","","385","tutorial/task_familiarization_images/part 2/08_160_55_cliqueRight_withFeedback_correct.PNG"," ","","","","","","","","",""
"","","","","","image-keyboard-response","40","182017","0.0-40.0","","354","tutorial/task_familiarization_images/part 2/09_160_70_cliqueLeft_withFeedback_1.PNG"," ","","","","","","","","",""
"","","","","","image-keyboard-response","41","182343","0.0-41.0","","325","tutorial/task_familiarization_images/part 2/10_160_70_cliqueLeft_withFeedback_2.PNG"," ","","","","","","","","",""
"","","","","","image-keyboard-response","42","182809","0.0-42.0","","465","tutorial/task_familiarization_images/part 2/11_160_70_cliqueLeft_withFeedback_3.PNG","arrowleft","","","","","","","","",""
"","","","","","image-keyboard-response","43","183167","0.0-43.0","","357","tutorial/task_familiarization_images/part 2/12_160_70_cliqueLeft_withFeedback_correct.PNG"," ","","","","","","","","",""
"","","","","","survey-html-form","44","189089","0.0-44.0","","5920","","{""gender"":""male"",""age"":""27""}","","","","","","","","",""
"","","","","","instructions","45","192481","0.0-45.0","[{""page_index"":0,""viewing_time"":3393}]","3393","","","","","","","","","","",""
"true","","","","","fullscreen","46","197048","0.0-47.0","","","","","","","","","","","","",""
"","","","","","canvas-keyboard-response","47","204505","0.0-48.0-0.0-0.0","","6283","","arrowleft","[503,771,469,17,679,388,3,871,254,348,731,835,340,844,621,785,363,456,603,954,287,988,687,144,671,719,636,418,133,698,128,393,922,277,484,673,112,125,647,404,462,195,155,281,792,669,915,944,336,373,886,48,226,36,216,233,900,825,99,591,973,95,770,494,868,619,218,163,907,280,736,371,137,309,368,485,475,181,173,468,394,40,306,631,930,375,526,704,667,945,55,67,60,416,425,353,266,203,775,106,934,630,426,732,797,477,399,851,51,546,657,364,401,293,501,554,846,504,816,305,987,743,787,26,285,256,63,632,190,599,573,365,903,319,727,558,312,799,461,818,47,549,316,513,931,379,600,892,893,648,421,370,801,789,924,493,971,66,243,961,802,397,488,745,442,21,782,222,653,150,165,322,360,464,527,28,762,659,826,562,474,192,534,744,537,901,884,390,5,509,338,683,994,674,395,223,626,772,932,953,129,776,275,93,141,59,670,274,77,62,382,320,807,525,906,198,951,97,255,862,828,383,518,372,980,302,854,857,742,837,400,909,561,30,910,506,716,204,332,265,11,926,176,151,833,56,264,820,535,263,984,847,43,479,717,459,856,466,682,210,645,864,260,214,803,935,752,939,635,585,867,810,351,690,239,875,829,587,447,718,409,722,432,739,349,616,142,942,72,928,559,891,960,441,131,380,159,156,784,201,178,420,344,853,271,171,419,94,185,882,598,27,465,618,729,172,182,217,241,495,969,270,0,139,480,623,389,508,29,114,993,817,948,2,768,665,812,86,982,578,692,938,595,997,965,523,808,247,624,346,392,688,358,219,89,359,633,923,323,246,726,105,33,367,81,335,134,221,827,943,872,927,423,790,666,288,791,478,70,250,685,18,355,656,411,936,702,644,547,540,689,677,282,781,937,916,542,16,261,887,845,592,303,564,119,798,873,396,183,445,140,80,612,582,138,490,91,164,764,188,514,377,175,294,788,279,946,289,209,570,620,187,940,588,699,883,14,836,304,627,663,386,522,533,385,220,236,779,361,899,45,8,208,52,284,314,737,437,406,196,520,58,180,248,213,778,765,454,463,574,695,440,896,992,870,660,300,751,473,640,113,44,528,708,310,391,225,668,23,749,450,330,877,189,925,64,569,714,517,313,123,730,35,861,205,763,586,991,756,496,999,830,894,438,843,318,414,575,168,507,880,424,715,804,511,412,548,878,557,111,539,472,253,257,858,147,813,451,597,481,696,107,929,613,786,986,963,754,720,455,297,298,966,460,761,879,283,415,327,604,234,92,605,700,116,661,551,959,545,307,968,898,760,694,654,269,919,746,290,859,384,186,809,571,821,521,435,199,82,85,22,41,410,329,955,852,149,822,680,482,215,124,407,848,675,301,122,118,777,895,676,758,96,567,49,100,326,735,169,76,295,888,741,262,628,978,500,345,443,19,637,917,402,733,444,989,37,608,996,498,649,242,9,224,842,672,68,863,53,12,184,231,337,436,427,721,240,430,413,590,985,869,362,515,467,681,550,228,83,13,840,686,643,850,881,962,1,766,678,292,46,589,874,947,834,560,918,584,486,602,505,531,519,819,921,324,308,491,651,146,957,824,110,711,499,607,170,566,544,194,321,774,317,273,252,823,157,350,117,581,258,740,357,334,354,609,664,805,174,831,583,811,259,638,341,634,516,439,769,75,448,885,783,471,767,84,956,908,691,61,536,913,374,387,98,794,990,446,576,713,703,191,158,693,71,267,952,639,734,356,135,403,452,54,276,245,39,108,911,529,102,552,611,193,701,655,724,34,449,235,211,177,530,483,458,838,457,538,433,73,87,642,333,832,815,725,970,167,42,795,902,977,126,755,839,796,855,286,512,408,431,800,976,594,964,470,866,705,489,434,417,202,15,429,556,572,748,912,200,750,974,712,212,296,6,497,232,237,606,145,143,4,510,914,229,369,709,57,981,601,153,596,342,841,710,120,728,7,422,148,325,127,227,849,25,502,876,860,625,162,933,865,315,88,206,979,889,130,381,343,152,328,251,476,662,10,230,78,806,532,614,780,90,577,890,998,378,31,238,904,658,331,136,905,132,101,207,160,975,593,352,615,154,366,541,376,950,121,524,958,555,249,69,428,617,347,967,793,492,972,697,949,753,563,115,646,24,166,268,568,453,723,773,197,543,109,738,487,339,405,650,103,65,291,941,897,579,747,278,565,983,652,706,684,553,104,79,622,920,610,629,641,20,311,272,757,299,50,814,580,995,398,759,179,244,38,707,74,161,32]","arrowleft","","true","0","0","300","1000","[""0088_N1000_K0300_CLIQUE"",""0071_N1000_K0300_NOCLIQUE""]"
"","","","","","audio-keyboard-response","48","205869","0.0-48.0-0.0-1.0","","null","audio_feedback/right/coin01.mp3","null","","","","","0","0","300","1000","[""0088_N1000_K0300_CLIQUE"",""0071_N1000_K0300_NOCLIQUE""]"
"","","","","","canvas-keyboard-response","49","208442","0.0-49.0-0.0-0.0","","1556","","arrowleft","[53,699,164,975,308,747,898,632,317,717,401,521,990,599,744,477,712,964,976,388,516,763,890,383,470,843,538,75,204,894,748,352,101,561,609,273,21,362,76,760,790,770,68,543,557,54,291,45,536,741,871,304,583,919,892,232,700,244,490,948,568,730,183,177,368,826,67,24,150,51,467,216,274,462,968,268,100,532,394,506,472,461,999,167,264,331,930,459,697,408,200,605,664,187,949,398,969,116,505,135,358,651,525,122,424,52,768,636,899,192,432,813,402,622,497,22,46,633,309,659,613,773,14,857,301,281,47,815,807,774,738,78,995,312,825,160,488,850,847,863,626,284,395,325,124,590,450,261,258,592,623,259,628,759,524,642,874,190,239,723,864,70,42,669,270,469,457,646,950,151,98,144,502,553,912,43,654,956,637,340,671,946,88,606,785,422,377,989,984,858,189,704,452,446,154,721,789,761,579,376,491,213,11,49,577,280,263,616,89,931,484,324,294,732,320,575,436,431,243,348,888,694,873,355,929,225,193,816,146,865,186,713,951,542,152,292,117,817,514,824,254,751,356,643,387,433,706,962,554,382,667,540,421,392,414,571,541,987,954,315,844,531,868,126,724,37,604,171,178,483,10,257,809,313,947,881,714,610,849,32,482,271,34,295,238,891,6,656,504,107,977,359,69,811,722,199,852,522,149,229,686,913,559,79,96,806,652,95,784,848,550,959,113,120,2,615,882,58,728,279,97,127,558,350,297,793,385,427,917,390,594,380,737,611,830,168,322,33,425,985,668,835,630,434,246,118,285,195,726,674,618,661,708,293,593,986,766,412,547,731,86,709,17,147,471,879,62,158,981,148,539,757,9,416,399,692,510,215,733,347,137,803,494,922,691,788,140,991,277,877,162,908,82,513,718,887,166,282,512,339,169,5,30,591,677,530,786,176,972,211,970,560,655,94,0,602,346,267,998,682,131,710,650,7,927,988,619,994,527,670,795,44,782,90,361,821,596,419,729,896,535,952,980,870,367,909,384,231,644,209,684,441,880,316,549,35,475,743,87,581,50,4,455,329,926,247,123,679,533,818,635,443,639,627,563,108,827,629,867,906,141,48,314,366,110,889,411,675,26,814,582,114,226,914,335,916,63,767,115,537,249,92,404,617,323,155,240,245,845,846,754,562,128,319,779,641,746,802,260,298,499,648,823,426,255,479,923,769,529,194,573,595,662,85,683,883,734,941,253,219,983,184,509,758,812,800,201,393,485,854,163,819,944,739,893,65,781,464,480,19,333,12,334,132,936,343,869,589,544,420,182,778,695,84,942,134,566,707,624,487,698,564,18,799,423,586,299,406,960,41,300,696,570,578,872,72,920,658,878,303,678,588,342,448,621,703,552,198,328,369,933,902,489,856,861,805,572,690,519,236,345,982,173,363,222,501,153,939,104,833,375,275,417,403,911,16,749,391,40,681,220,400,371,660,174,175,81,688,109,197,83,435,223,272,73,252,992,755,458,665,276,248,555,772,415,608,179,437,341,287,217,64,374,121,112,853,311,794,27,517,460,901,603,993,353,839,963,306,456,212,102,56,796,318,600,418,145,876,60,228,921,907,296,142,360,205,961,792,776,172,451,180,546,111,687,481,125,321,159,851,307,289,379,444,36,685,663,576,842,837,580,607,29,676,80,829,453,625,551,791,495,928,716,897,241,500,884,508,934,133,689,302,230,932,860,597,979,520,206,23,905,798,410,99,237,39,364,473,895,354,442,66,955,935,130,476,332,351,859,474,885,91,971,103,13,93,736,74,278,518,953,138,143,224,647,449,978,515,903,937,439,440,725,797,753,545,855,465,649,875,938,38,413,638,904,804,463,269,569,918,915,139,235,866,386,672,925,221,966,614,507,210,218,170,567,288,574,820,233,764,585,548,943,750,373,227,105,771,161,511,634,234,745,337,828,338,365,973,286,666,780,57,188,468,378,409,640,801,478,381,129,822,945,466,702,526,727,996,612,326,191,496,534,719,493,429,832,831,974,327,55,1,841,290,445,181,777,28,3,265,310,196,810,207,8,653,523,657,598,71,775,15,620,967,370,910,503,836,584,20,565,156,283,705,498,735,838,840,266,701,336,250,454,765,251,208,31,447,438,680,389,787,740,834,77,528,957,965,61,344,556,673,242,631,157,742,756,783,752,486,720,587,405,349,119,396,203,372,428,762,136,924,202,106,407,185,305,997,958,900,711,165,25,645,492,430,940,886,262,808,397,862,601,330,59,256,214,693,715,357]","arrowleft","","true","0","1","300","1000","[""0034_N1000_K0300_CLIQUE"",""0081_N1000_K0300_NOCLIQUE""]"
"","","","","","audio-keyboard-response","50","209432","0.0-49.0-0.0-1.0","","null","audio_feedback/right/coin01.mp3","null","","","","","0","1","300","1000","[""0034_N1000_K0300_CLIQUE"",""0081_N1000_K0300_NOCLIQUE""]"
"","","","","","canvas-keyboard-response","51","212433","0.0-50.0-0.0-0.0","","2034","","arrowleft","[500,126,355,756,966,614,106,861,375,452,483,607,65,778,552,955,923,655,606,792,903,129,236,316,299,351,319,892,141,641,712,12,127,496,866,416,938,799,972,217,686,469,783,621,306,708,383,907,954,386,884,35,782,992,220,446,55,674,59,107,482,635,352,423,918,933,450,831,537,748,427,888,654,749,90,332,956,467,683,967,549,986,819,435,19,259,696,56,51,859,227,912,289,772,13,976,112,249,516,342,408,413,118,771,617,189,108,904,504,957,572,887,344,636,816,87,643,168,767,905,989,814,863,882,671,415,826,570,405,266,867,142,675,104,883,759,475,433,54,578,784,913,366,215,981,694,656,970,300,195,909,776,194,414,530,871,807,159,389,648,731,399,535,11,576,301,31,714,853,510,324,101,917,586,318,468,558,327,5,610,793,993,835,732,557,201,506,813,919,942,600,154,282,848,788,269,57,248,764,820,109,995,279,499,229,971,929,553,740,699,240,994,761,83,225,802,305,30,803,436,765,180,742,922,715,865,838,334,979,667,658,677,886,353,481,312,608,463,206,592,228,634,454,278,737,187,837,701,161,754,921,72,899,575,730,292,443,67,818,639,10,357,965,233,470,657,314,739,286,507,531,271,395,569,707,219,359,102,86,638,763,914,653,339,968,438,672,593,518,251,192,847,953,434,313,777,536,16,565,930,442,911,602,364,181,216,137,810,14,746,595,559,529,823,949,665,261,845,293,526,581,751,821,934,43,165,297,706,451,795,232,520,587,652,461,868,6,806,74,693,659,325,812,255,134,163,320,522,321,544,508,852,92,459,744,164,805,523,340,521,36,8,842,628,26,991,567,132,311,525,462,315,960,733,827,89,925,512,441,910,392,809,310,750,594,280,695,574,182,52,198,724,349,844,160,939,105,336,241,878,709,171,46,372,323,439,704,561,185,417,800,270,663,350,700,330,48,554,836,490,281,551,620,138,691,196,176,781,422,264,407,326,128,370,493,775,486,103,613,243,403,424,983,136,711,238,673,115,449,556,296,718,213,85,843,729,978,21,548,902,234,645,770,515,649,45,872,29,214,113,208,465,897,193,974,830,862,303,260,527,239,937,786,75,308,144,676,618,890,605,789,76,915,210,381,689,632,480,139,455,387,66,285,209,409,926,492,457,588,534,625,877,479,961,84,3,98,629,808,204,7,524,258,900,489,425,780,376,678,156,38,719,760,585,199,473,894,796,149,999,626,50,633,647,984,622,502,61,880,597,272,331,856,41,183,898,262,987,528,590,186,519,713,670,42,283,864,80,875,64,773,946,471,190,931,133,169,488,644,964,503,990,378,747,774,755,615,329,869,254,484,682,244,637,411,948,514,410,9,257,857,53,148,360,546,651,224,584,374,44,328,274,426,642,623,17,762,476,464,203,646,893,398,79,858,172,284,722,440,2,78,70,211,662,609,275,768,273,338,680,377,916,202,58,428,849,68,117,640,456,15,685,927,571,758,833,702,501,179,666,716,173,431,705,906,252,985,630,591,247,601,725,396,997,380,62,583,478,511,854,131,988,817,589,687,885,430,631,669,577,152,555,477,545,49,37,123,958,222,723,753,25,88,290,119,895,743,874,406,726,681,348,945,472,27,562,155,973,547,855,573,538,122,612,24,495,517,936,237,828,120,235,166,346,250,541,343,390,1,977,151,736,825,39,445,385,317,734,924,114,815,891,873,218,429,498,184,928,996,980,582,540,397,97,846,801,207,363,288,497,513,121,263,661,532,690,599,99,419,727,963,91,998,738,466,28,832,267,580,940,717,533,63,242,550,401,698,860,421,840,200,811,697,720,745,157,388,487,412,167,664,560,735,73,851,246,361,485,432,721,757,32,100,337,379,543,941,82,932,876,951,345,111,579,47,959,245,95,393,212,124,841,650,790,356,679,881,116,950,824,703,460,135,453,60,660,542,797,935,404,382,188,752,362,265,491,130,400,335,341,365,191,309,322,944,256,448,728,791,143,221,94,982,444,619,354,175,908,474,539,710,943,287,71,975,684,150,603,598,850,69,692,779,22,688,307,277,302,304,505,596,889,798,437,969,34,391,294,367,226,371,839,418,624,81,804,566,368,920,458,394,178,333,40,616,147,741,420,96,125,447,231,77,604,766,177,358,33,785,369,295,384,962,627,896,834,947,18,870,205,568,794,822,276,402,4,162,230,787,197,298,901,145,668,23,563,253,769,879,829,170,0,174,158,20,223,373,509,952,110,611,146,347,153,268,140,564,494,291,93]","arrowleft","","true","0","2","267","1000","[""0014_N1000_K0267_CLIQUE"",""0031_N1000_K0267_NOCLIQUE""]"
"","","","","","audio-keyboard-response","52","213421","0.0-50.0-0.0-1.0","","null","audio_feedback/right/coin01.mp3","null","","","","","0","2","267","1000","[""0014_N1000_K0267_CLIQUE"",""0031_N1000_K0267_NOCLIQUE""]"
"","","","","","canvas-keyboard-response","53","215353","0.0-51.0-0.0-0.0","","1022","","arrowleft","[502,15,355,483,981,903,396,607,771,628,735,135,95,865,231,470,169,947,810,594,887,888,501,677,843,185,357,627,21,944,176,164,468,749,615,529,658,38,120,832,640,5,520,772,187,561,150,939,352,76,742,318,535,515,204,964,416,631,469,911,590,70,234,472,874,931,531,44,407,549,195,553,380,851,314,900,999,755,961,845,683,297,219,479,830,597,143,271,797,36,103,814,855,639,279,866,280,570,811,912,669,987,705,179,295,769,707,393,419,975,876,381,480,972,849,858,706,665,206,445,457,41,500,490,364,798,642,491,232,111,933,575,519,425,354,209,298,781,426,551,565,789,932,747,723,177,822,946,836,870,795,161,922,229,901,235,759,694,488,600,338,935,60,756,203,365,800,359,385,43,84,63,463,9,29,745,22,102,35,227,424,162,371,91,213,578,442,748,567,315,952,147,773,113,20,614,611,923,192,965,293,564,942,697,332,497,505,256,968,525,652,929,974,300,388,16,815,909,255,766,389,731,47,6,485,700,945,719,521,868,182,678,85,734,517,73,904,292,807,474,898,262,429,689,369,693,671,859,273,163,118,132,620,375,50,233,24,569,119,973,334,831,374,223,379,46,776,194,221,542,829,785,820,183,141,373,65,440,786,51,726,224,573,746,804,197,763,713,808,410,228,998,475,34,937,249,339,743,432,384,582,215,49,325,106,406,718,130,710,285,79,591,613,978,99,258,882,368,741,514,545,838,682,796,482,667,267,647,893,679,676,522,415,155,899,528,59,921,963,441,282,530,270,752,990,877,560,897,837,657,290,90,305,540,857,907,805,238,431,123,672,775,397,89,454,740,30,643,122,510,260,244,688,476,127,619,673,489,449,62,25,80,486,784,98,527,186,52,833,335,890,717,237,115,10,662,100,873,112,982,778,81,988,768,48,125,603,133,17,193,686,496,758,284,738,289,651,104,577,137,546,993,506,621,222,307,350,107,207,644,131,774,301,984,977,864,7,157,927,277,609,358,465,891,692,737,959,212,955,638,414,0,902,985,708,881,340,571,283,720,40,970,926,598,532,660,513,721,960,518,226,72,402,218,498,596,957,348,245,450,698,653,160,951,252,541,421,894,251,88,714,879,629,360,895,915,508,174,140,548,2,599,727,92,263,703,940,997,563,770,511,732,840,924,983,57,819,148,101,635,317,411,403,863,331,925,394,171,762,333,287,377,383,362,55,58,436,648,523,170,3,168,494,413,459,363,821,484,668,885,886,216,324,96,33,637,181,4,834,11,871,337,699,202,448,236,74,422,18,78,617,589,261,574,31,311,242,839,750,685,82,976,586,418,918,958,878,225,618,956,949,330,989,146,954,53,861,253,780,269,696,670,27,884,281,247,827,351,467,319,566,986,329,636,744,159,730,322,308,787,782,444,754,630,205,751,536,908,906,872,399,276,860,554,97,452,941,321,524,967,753,201,842,266,342,761,460,534,953,54,681,616,265,404,495,812,438,250,595,538,584,916,824,624,408,366,543,492,544,83,943,722,733,704,991,568,165,196,608,572,550,711,557,661,200,950,934,818,129,499,712,291,336,121,690,69,294,757,765,581,914,344,435,995,274,936,254,310,966,585,391,346,268,562,507,503,790,779,114,938,326,828,427,136,94,32,729,37,612,816,400,453,109,634,152,666,512,116,108,948,823,272,56,783,124,105,434,299,395,68,387,622,632,592,962,458,304,896,547,764,725,323,455,606,980,191,173,12,610,420,724,341,633,794,715,791,701,451,180,604,144,430,1,588,920,303,343,593,370,166,158,316,320,992,728,806,702,190,684,172,856,428,288,533,198,87,149,813,66,674,188,367,539,555,153,826,504,145,64,969,401,788,71,846,376,154,456,446,471,378,302,398,230,650,801,134,45,23,875,809,327,803,126,905,971,817,328,361,67,347,412,199,799,481,142,93,852,558,39,880,382,979,516,313,61,680,605,579,178,716,910,576,602,390,663,867,264,835,862,26,447,417,167,409,462,869,117,110,793,844,767,687,580,13,19,659,736,437,241,493,552,386,913,392,42,309,930,509,75,128,655,214,601,623,526,675,466,220,649,312,239,353,356,184,646,853,286,802,439,654,625,709,917,248,278,28,883,850,996,138,777,626,246,345,240,139,892,847,587,478,8,243,928,559,259,556,792,210,443,695,306,208,645,854,664,14,433,217,477,583,405,296,372,275,257,349,848,77,889,464,175,760,641,919,537,473,739,156,487,86,189,691,151,841,211,423,656,994,461,825]","arrowleft","","true","0","3","267","1000","[""0063_N1000_K0267_CLIQUE"",""0070_N1000_K0267_NOCLIQUE""]"
"","","","","","audio-keyboard-response","54","216344","0.0-51.0-0.0-1.0","","null","audio_feedback/right/coin01.mp3","null","","","","","0","3","267","1000","[""0063_N1000_K0267_CLIQUE"",""0070_N1000_K0267_NOCLIQUE""]"
"","","","","","canvas-keyboard-response","55","218126","0.0-52.0-0.0-0.0","","815","","arrowleft","[856,919,701,202,359,981,29,963,921,338,329,426,223,207,177,997,643,185,350,220,691,410,725,365,71,401,249,653,522,695,770,417,298,165,842,741,738,755,996,184,335,934,439,969,341,833,914,278,151,30,221,382,346,99,895,428,640,506,268,783,629,630,170,651,263,317,134,225,768,864,100,195,573,509,435,807,987,275,167,571,841,1,665,504,344,472,3,466,174,944,576,835,562,618,398,114,897,977,110,96,495,52,294,272,778,941,407,994,917,554,447,762,77,667,787,637,493,153,631,5,36,676,159,806,825,696,496,654,706,890,880,33,697,812,619,750,852,357,949,366,408,760,863,526,50,10,44,714,405,881,927,13,679,608,932,782,289,922,926,102,227,123,719,721,403,147,150,632,971,68,113,574,669,48,813,773,269,388,639,595,744,767,577,103,572,12,528,452,993,418,954,22,164,319,734,455,958,702,456,321,411,731,848,534,784,757,986,75,788,222,422,558,774,896,441,915,594,101,257,512,107,950,26,688,62,803,539,785,578,920,685,740,945,818,873,902,425,116,246,40,876,610,64,230,397,611,8,589,204,745,786,819,672,476,903,627,305,377,500,615,66,372,199,727,467,362,219,935,913,292,171,530,622,711,797,387,849,989,978,454,751,815,328,256,720,470,284,181,351,253,234,155,212,974,290,775,586,7,544,710,942,955,816,490,300,612,450,951,9,434,120,507,929,6,299,739,90,609,379,501,826,541,779,20,141,307,893,909,769,811,306,859,488,81,689,700,216,550,722,683,404,527,483,799,591,414,465,860,301,698,829,394,776,240,886,363,445,956,80,446,656,959,205,34,413,647,243,673,657,293,840,925,236,511,855,726,23,891,798,781,516,966,367,242,41,508,331,129,2,313,715,392,520,646,532,875,682,836,297,747,94,430,59,302,432,605,285,72,238,809,546,626,376,596,670,287,4,759,355,32,160,183,188,756,505,117,396,907,375,984,793,724,197,260,369,580,703,17,56,323,400,69,540,390,889,158,565,633,792,537,98,28,395,206,371,985,868,386,823,777,259,556,607,533,552,598,172,203,557,286,61,194,888,789,91,502,458,276,717,54,315,327,634,16,874,161,480,587,666,900,229,252,991,642,877,999,899,953,191,38,952,409,406,708,131,130,536,262,261,25,304,356,911,964,349,334,668,968,232,535,326,547,31,885,431,74,82,931,901,800,709,55,461,175,18,47,780,961,645,479,0,882,830,628,718,270,415,273,198,636,352,545,796,801,440,584,561,182,905,705,245,690,189,838,742,51,644,707,704,157,200,168,933,437,650,57,337,111,518,560,831,460,463,144,514,154,186,684,600,482,844,677,137,517,597,484,308,671,214,621,992,513,237,652,211,399,87,822,162,843,661,635,566,89,820,655,962,27,916,336,60,459,692,599,712,858,620,360,353,894,583,805,477,625,146,939,602,178,616,850,924,314,448,869,531,312,772,247,402,623,748,663,910,70,444,764,115,723,503,424,713,95,649,735,310,11,193,37,585,519,510,281,121,828,499,271,196,771,491,303,884,451,142,173,824,728,85,145,283,549,664,318,908,878,58,277,912,861,443,588,316,680,201,248,660,84,112,521,487,86,613,109,761,733,78,279,965,904,244,948,716,471,226,581,923,235,24,187,569,45,624,420,255,280,381,468,857,412,791,209,180,65,433,729,854,364,233,133,67,590,575,348,19,119,736,475,210,169,846,866,295,385,176,231,746,449,982,943,960,258,529,603,378,821,794,343,938,427,332,93,988,674,79,758,322,883,42,648,105,128,124,342,928,135,320,976,485,361,228,765,274,254,291,489,678,325,524,179,749,936,906,515,553,641,766,995,208,39,973,127,43,138,827,14,802,606,224,192,839,737,125,601,373,49,296,525,46,752,814,250,930,15,330,156,947,543,311,53,940,148,614,391,568,687,282,834,83,339,593,104,266,604,658,817,347,265,469,659,847,486,438,76,694,693,473,732,149,126,892,975,166,845,808,871,106,383,730,139,462,675,998,972,872,251,143,662,990,88,136,879,416,309,370,538,464,421,340,494,754,763,946,564,918,980,239,957,423,217,190,393,374,368,795,288,267,887,492,436,132,579,542,753,384,617,699,63,429,810,478,481,21,380,35,898,870,804,563,152,867,592,790,559,118,389,979,567,474,983,108,457,215,851,638,73,497,551,218,582,333,862,570,324,498,358,241,213,523,453,97,681,163,442,92,354,548,555,419,865,122,837,686,832,970,967,345,853,743,937,140,264]","arrowleft","","true","0","4","233","1000","[""0087_N1000_K0233_CLIQUE"",""0023_N1000_K0233_NOCLIQUE""]"
"","","","","","audio-keyboard-response","56","219117","0.0-52.0-0.0-1.0","","null","audio_feedback/right/coin01.mp3","null","","","","","0","4","233","1000","[""0087_N1000_K0233_CLIQUE"",""0023_N1000_K0233_NOCLIQUE""]"
"","","","","","canvas-keyboard-response","57","220773","0.0-53.0-0.0-0.0","","782","","arrowright","[641,3,9,653,577,824,932,958,946,424,79,431,244,202,922,237,589,266,36,711,126,115,182,196,882,137,486,938,525,288,791,582,101,435,584,179,982,988,933,42,133,801,499,403,867,959,27,626,360,221,555,432,980,475,951,601,849,528,30,643,494,130,993,452,252,655,511,539,517,733,566,311,177,761,489,488,110,57,331,792,382,811,320,746,859,567,639,614,405,943,683,674,996,207,628,146,640,40,117,131,548,976,917,954,26,721,905,305,816,637,350,77,332,370,5,481,194,248,439,647,815,88,883,91,848,124,170,59,537,519,964,755,820,160,148,109,666,374,175,321,532,852,896,888,454,617,835,369,426,161,466,872,702,979,314,319,931,345,908,660,44,316,865,563,118,278,463,754,464,69,125,856,171,989,409,139,559,384,16,624,123,894,853,271,692,342,241,318,495,775,822,902,766,150,828,668,571,783,99,881,37,496,836,572,734,260,712,604,782,469,80,386,178,679,60,226,967,893,365,684,509,308,51,986,934,885,302,535,971,618,286,85,352,646,309,771,603,903,744,167,774,71,697,465,763,652,591,89,490,98,299,78,802,440,334,346,768,234,911,554,246,800,289,947,13,358,919,948,606,975,364,689,56,794,586,879,924,296,277,28,114,225,41,621,748,970,950,803,65,227,678,31,121,886,265,514,760,113,844,780,253,578,962,992,306,323,693,974,821,294,498,994,662,595,351,397,76,193,854,649,799,39,371,673,180,636,512,254,839,629,363,111,731,699,446,4,648,727,273,10,53,383,399,522,303,142,64,984,347,230,977,726,94,198,389,878,819,772,558,216,493,414,174,786,995,224,553,752,941,594,831,808,261,256,858,293,147,425,0,92,176,429,214,219,97,818,625,388,670,841,415,861,913,527,696,35,105,969,729,284,103,550,245,682,312,143,231,985,723,326,540,739,23,892,602,906,549,149,255,460,704,756,258,242,953,675,455,516,807,292,597,830,471,211,505,534,585,651,502,927,694,873,743,862,83,195,34,764,168,779,642,507,223,722,229,789,268,965,276,942,243,812,387,767,238,482,456,14,197,724,542,520,434,156,127,798,762,600,536,866,930,450,232,935,925,907,611,842,627,86,610,159,972,667,393,2,18,453,129,707,187,758,212,596,661,843,220,82,474,717,568,526,478,385,588,829,285,281,184,700,957,47,795,900,328,785,952,119,235,416,560,850,188,67,575,322,998,87,17,251,353,274,158,295,315,543,128,530,368,90,623,945,154,834,73,68,362,884,247,714,291,199,107,1,61,7,122,279,359,612,552,380,960,412,338,961,72,84,21,492,462,240,75,317,228,298,709,921,421,218,547,897,327,22,576,497,874,778,718,580,663,619,348,391,181,840,851,784,564,630,551,479,43,483,837,508,804,765,916,411,381,485,638,966,997,968,173,441,583,468,876,48,914,272,923,236,8,524,233,112,635,396,504,480,687,891,120,340,940,419,813,249,871,725,656,904,192,447,732,378,983,686,616,136,401,937,423,164,598,909,658,823,681,46,609,297,310,845,817,410,262,939,104,887,70,608,645,132,847,890,66,354,809,797,204,50,333,325,52,400,518,770,163,6,793,500,781,153,449,688,738,269,691,96,978,344,742,963,750,157,899,392,190,32,402,329,20,990,373,102,19,545,720,561,108,672,870,95,145,944,442,579,728,705,366,45,607,880,538,280,264,24,222,565,313,677,407,63,562,433,445,185,981,806,832,620,838,703,634,357,377,877,436,680,659,58,443,169,920,690,404,376,141,740,93,367,458,860,715,529,810,749,826,413,695,915,929,183,753,215,868,12,191,162,472,991,757,544,473,487,29,515,25,418,361,390,144,665,205,476,140,106,573,805,730,706,427,590,33,406,869,356,470,189,135,777,477,395,631,569,863,593,208,287,513,796,787,889,773,267,330,613,74,54,955,581,372,521,506,719,557,15,615,138,708,918,408,428,599,846,701,336,533,259,605,632,898,788,875,200,349,956,531,201,62,622,38,926,644,864,337,685,737,457,776,81,283,827,420,987,422,203,657,895,650,355,713,55,556,790,275,270,857,11,467,759,451,166,716,570,735,814,379,751,307,217,769,633,669,398,745,671,501,300,250,461,430,151,335,664,484,541,152,523,437,510,698,263,257,282,49,747,186,210,209,910,949,375,165,100,654,587,710,676,736,239,459,901,973,341,290,172,448,438,999,574,394,936,134,741,301,116,324,825,928,912,546,206,417,155,213,304,503,491,855,343,339,592,833,444]","arrowright","","true","0","5","233","1000","[""0067_N1000_K0233_NOCLIQUE"",""0096_N1000_K0233_CLIQUE""]"
"","","","","","audio-keyboard-response","58","221763","0.0-53.0-0.0-1.0","","null","audio_feedback/right/coin01.mp3","null","","","","","0","5","233","1000","[""0067_N1000_K0233_NOCLIQUE"",""0096_N1000_K0233_CLIQUE""]"
"","","","","","canvas-keyboard-response","59","223429","0.0-54.0-0.0-0.0","","658","","arrowright","[199,9,729,36,136,443,905,793,278,873,128,744,51,855,651,325,743,488,233,725,351,633,930,463,978,482,989,122,74,757,595,133,464,559,410,563,444,750,479,953,623,967,399,791,274,83,969,379,106,890,972,788,219,25,160,337,751,987,222,849,20,287,500,739,10,448,363,366,917,641,395,499,441,108,573,138,32,356,77,273,629,677,314,31,383,610,766,585,64,719,400,589,716,809,178,92,98,611,87,753,349,976,760,261,616,508,522,75,653,427,81,880,768,466,66,203,485,85,583,475,35,228,205,14,538,41,993,765,435,174,581,343,48,612,423,960,39,607,546,673,688,810,227,914,251,584,758,776,317,748,403,745,262,431,478,693,215,396,244,851,687,143,68,354,553,95,943,248,310,913,113,457,272,666,350,613,254,962,226,3,923,850,137,121,784,764,550,279,234,740,249,452,867,165,101,374,932,334,785,268,954,305,220,818,910,711,901,4,816,157,824,302,662,966,126,871,109,187,717,996,854,429,123,803,80,696,45,258,866,102,62,414,21,944,580,659,811,88,257,684,243,671,514,948,442,117,531,509,146,804,797,147,155,787,127,17,322,193,284,252,864,742,983,253,781,982,56,269,498,316,54,737,140,731,841,507,150,415,774,480,394,951,82,860,874,141,42,861,492,47,656,798,669,836,602,437,929,459,446,994,295,309,685,22,936,347,320,107,152,548,99,328,124,894,352,790,406,333,168,460,592,609,726,57,661,96,964,846,276,434,290,282,555,292,698,469,992,752,734,628,694,200,511,528,361,358,639,191,382,649,171,845,89,638,692,599,958,577,663,37,156,29,318,104,386,67,445,942,624,368,903,453,184,888,381,908,285,376,288,986,40,654,440,676,340,158,255,842,601,767,473,436,702,556,12,246,389,690,380,533,529,206,291,293,33,393,373,230,490,166,682,636,306,277,829,224,53,13,327,997,823,973,447,931,834,608,945,959,645,331,707,582,627,489,175,345,192,211,657,759,674,131,339,346,332,468,545,180,593,715,186,115,540,202,898,857,709,868,565,802,985,800,718,525,483,738,69,336,70,795,554,189,840,642,928,872,46,455,28,326,116,307,503,173,780,625,722,461,730,94,100,883,590,235,561,544,451,588,576,699,789,527,981,300,558,530,539,963,821,213,232,450,844,732,90,574,569,84,5,154,353,392,44,998,806,311,491,618,433,493,668,472,813,267,52,270,826,413,957,637,401,755,947,195,837,515,603,835,724,858,497,995,330,567,714,604,105,918,597,263,705,578,552,551,477,665,865,367,912,50,496,988,61,736,237,55,43,977,799,902,631,378,134,426,679,256,182,510,664,119,675,408,419,876,640,938,63,221,198,770,294,568,385,524,247,968,689,897,882,980,881,646,949,196,562,620,547,891,321,16,712,418,939,626,915,299,280,315,762,486,984,754,933,91,153,214,600,877,708,319,265,941,870,686,667,264,259,506,432,615,72,404,801,456,869,926,360,428,955,534,807,606,407,8,670,991,281,229,289,672,775,839,179,643,519,838,465,681,197,974,245,283,97,324,208,24,761,875,348,769,999,421,937,210,614,906,190,617,833,831,467,34,204,805,819,260,424,359,878,786,536,6,652,151,30,847,286,728,323,773,832,541,201,566,312,409,830,634,564,919,474,647,749,596,896,856,125,275,118,194,181,114,971,746,23,58,630,537,655,526,71,313,169,727,338,49,177,505,148,899,721,777,635,513,297,242,120,384,916,794,723,438,572,371,357,341,895,827,591,598,700,484,927,420,704,2,161,532,859,560,296,462,697,416,266,1,471,828,521,909,145,814,494,887,886,920,495,103,680,372,512,185,691,481,879,130,0,863,164,132,778,862,78,398,586,303,387,370,907,950,18,388,163,7,622,965,922,112,924,422,763,142,683,956,412,848,990,885,362,940,93,594,207,223,713,703,523,167,741,543,557,733,217,212,579,619,852,236,783,884,425,405,946,889,706,779,454,935,701,170,231,520,135,695,921,86,391,542,239,648,660,961,335,458,144,218,365,820,369,720,772,216,792,502,504,518,430,517,308,240,364,38,476,782,747,825,225,900,549,570,304,808,449,241,390,139,892,183,377,970,658,650,27,344,301,79,952,375,59,812,605,73,355,111,575,817,843,342,65,979,470,26,771,587,644,417,176,250,904,19,397,756,209,975,632,893,678,516,621,925,487,796,571,710,402,149,162,172,129,188,329,735,853,822,501,159,535,110,60,76,238,934,298,815,911,411,271,439,11,15]","arrowright","","true","0","6","217","1000","[""0020_N1000_K0217_NOCLIQUE"",""0100_N1000_K0217_CLIQUE""]"
"","","","","","audio-keyboard-response","60","224429","0.0-54.0-0.0-1.0","","null","audio_feedback/right/coin01.mp3","null","","","","","0","6","217","1000","[""0020_N1000_K0217_NOCLIQUE"",""0100_N1000_K0217_CLIQUE""]"
"","","","","","canvas-keyboard-response","61","226159","0.0-55.0-0.0-0.0","","700","","arrowright","[96,445,79,107,105,380,429,867,12,558,206,671,875,510,733,568,978,494,624,455,473,849,841,527,946,297,591,529,631,92,520,230,94,839,868,336,856,698,967,86,293,778,456,531,521,607,440,108,397,542,20,863,341,715,977,920,325,428,942,735,508,648,484,612,305,661,927,689,318,647,271,320,216,101,347,349,758,835,772,925,28,543,988,575,288,693,378,574,496,595,901,472,135,793,329,753,212,158,77,526,142,789,180,213,840,644,103,788,717,395,703,752,801,714,469,625,414,189,416,711,249,50,278,700,266,599,987,666,367,605,921,147,642,439,911,907,2,634,81,485,618,765,626,274,959,323,637,73,36,465,910,393,881,75,215,956,411,687,67,120,812,636,23,383,690,794,969,829,290,377,134,519,139,21,691,553,58,386,387,59,592,17,657,84,954,192,876,11,116,551,585,709,1,845,171,602,22,598,53,196,994,878,423,787,245,26,748,313,764,844,569,279,999,246,185,704,724,629,385,31,516,823,164,186,355,949,524,958,796,374,264,677,283,363,165,372,623,739,156,300,732,80,696,808,427,78,410,137,357,47,540,194,127,749,154,865,929,860,366,594,506,809,52,33,344,583,762,174,541,509,481,804,797,176,319,65,798,497,241,452,962,442,6,992,228,738,656,254,820,384,420,232,731,306,512,263,601,379,441,400,201,151,756,91,546,365,853,382,919,976,490,533,974,555,799,979,713,846,851,695,167,750,530,848,944,608,68,680,106,223,0,181,398,272,172,88,705,444,390,405,45,24,760,523,673,169,857,14,389,816,104,562,630,259,275,39,773,975,730,664,561,350,908,932,312,918,179,721,615,720,890,461,460,474,897,217,48,537,195,193,415,471,641,57,702,633,276,571,392,718,63,912,375,737,662,273,8,830,90,466,277,478,13,317,650,454,565,62,126,843,604,862,610,221,726,183,248,331,728,894,32,7,409,15,235,800,893,973,874,635,467,837,838,742,413,507,136,536,892,781,253,451,864,242,652,649,995,767,990,260,879,424,805,483,492,554,184,376,679,69,847,686,898,769,869,768,231,501,335,577,745,280,660,304,425,210,525,716,859,224,593,842,706,581,719,244,353,342,202,785,44,791,70,754,870,348,234,361,588,252,421,783,613,619,148,997,191,806,354,115,972,924,961,338,795,42,584,504,532,518,346,173,522,498,547,928,267,470,209,883,627,515,449,538,938,573,628,930,177,225,886,915,906,905,113,152,76,606,940,229,119,200,265,665,828,489,807,980,443,220,889,182,493,35,984,790,328,936,402,269,60,327,803,667,168,178,487,310,570,258,371,985,535,138,675,663,766,157,600,993,102,566,852,251,324,707,880,99,904,462,780,261,358,133,548,968,763,286,298,953,557,609,653,447,299,740,708,971,810,813,815,140,121,549,970,746,227,729,243,187,826,814,603,617,458,373,943,211,579,939,46,436,95,770,950,981,672,902,926,957,989,792,256,407,291,74,303,998,699,511,240,435,109,589,100,888,41,643,834,143,827,580,289,412,903,755,861,160,38,431,913,727,123,282,480,146,149,836,955,688,292,694,403,741,685,611,150,247,370,453,29,71,712,941,5,659,722,418,873,233,877,426,668,965,257,872,203,30,10,596,205,552,175,948,621,450,262,855,214,922,459,945,825,676,822,219,343,743,56,61,55,960,917,576,287,934,250,285,170,468,314,614,563,381,882,505,362,161,832,655,986,831,19,736,18,255,330,333,111,725,620,850,854,85,433,923,486,503,658,296,315,622,640,500,141,777,237,351,356,438,321,128,885,417,887,334,891,162,779,616,345,747,678,996,774,339,572,302,682,399,391,963,125,66,93,72,517,457,476,539,54,404,479,811,824,784,464,4,818,819,900,307,534,129,295,112,117,761,145,340,937,3,64,817,751,396,964,991,448,776,499,155,114,130,683,966,360,25,43,896,83,646,632,408,674,858,309,914,463,786,34,710,884,301,394,821,218,308,909,110,559,723,513,802,582,651,239,899,931,268,933,49,238,495,782,757,645,332,326,502,670,16,638,475,322,144,369,432,947,544,895,222,198,744,316,368,51,681,226,430,491,163,697,437,359,124,131,153,294,550,556,564,82,567,422,866,236,586,159,401,197,9,98,406,578,654,27,284,40,701,434,477,597,514,684,311,37,166,87,771,951,916,871,188,190,639,281,952,983,118,337,482,207,199,97,364,208,89,419,935,446,560,132,352,833,388,488,204,734,775,545,270,982,122,669,528,759,692,587,590]","arrowright","","true","0","7","217","1000","[""0097_N1000_K0217_NOCLIQUE"",""0060_N1000_K0217_CLIQUE""]"
"","","","","","audio-keyboard-response","62","227160","0.0-55.0-0.0-1.0","","null","audio_feedback/right/coin01.mp3","null","","","","","0","7","217","1000","[""0097_N1000_K0217_NOCLIQUE"",""0060_N1000_K0217_CLIQUE""]"
"","","","","","canvas-keyboard-response","63","229098","0.0-56.0-0.0-0.0","","973","","arrowleft","[405,721,513,728,257,310,707,611,388,588,380,756,197,659,778,246,793,770,17,943,616,107,981,780,122,704,895,176,941,75,522,299,202,319,200,548,964,515,655,740,321,493,510,412,2,252,657,690,673,577,165,149,997,857,318,672,617,512,359,43,760,114,916,608,384,272,914,648,999,701,438,376,556,287,157,194,998,551,50,815,982,834,475,896,730,103,847,160,375,861,131,621,361,423,537,918,400,201,488,972,77,84,386,734,708,218,245,963,81,561,342,26,762,590,367,53,370,86,523,281,379,603,598,575,503,409,835,771,754,858,978,101,741,250,80,716,11,486,306,289,142,59,70,268,744,755,279,329,926,855,991,0,955,786,434,162,87,454,765,65,27,803,300,198,827,362,293,817,459,104,661,73,4,622,627,265,254,935,684,185,455,461,105,242,681,946,44,782,110,713,530,274,689,337,566,138,574,481,747,968,285,217,589,712,984,360,901,23,187,32,106,945,368,990,859,283,828,258,334,354,823,717,280,432,618,692,38,501,971,452,355,560,538,646,662,357,838,853,18,88,169,844,559,445,609,632,336,711,610,363,604,98,913,869,502,42,693,832,757,296,709,205,586,532,873,167,113,790,954,347,430,948,931,491,174,719,51,759,599,302,962,437,135,471,63,301,230,686,667,469,637,813,182,514,453,644,504,703,241,710,996,836,739,911,874,678,749,936,414,906,852,331,108,724,651,752,240,151,519,460,867,524,41,845,769,969,663,476,229,917,517,792,408,699,736,908,60,735,130,966,277,597,436,323,487,591,729,682,623,768,536,132,427,884,46,825,584,315,842,152,738,251,211,794,424,387,725,419,777,392,189,808,679,35,58,186,601,339,6,614,29,482,128,393,464,540,22,870,61,658,350,879,694,422,810,594,868,238,335,669,441,615,633,411,215,983,395,500,518,960,620,163,439,210,576,426,496,726,55,558,450,343,975,271,71,507,85,553,20,311,892,333,463,753,579,14,837,109,64,578,885,222,985,261,820,881,506,497,144,555,891,341,324,521,221,994,893,596,256,499,550,647,508,529,653,819,480,5,977,158,511,366,264,224,340,133,266,479,965,173,687,951,406,905,351,581,415,232,638,93,462,345,171,466,170,702,640,398,153,284,3,309,995,297,875,192,467,613,377,979,253,57,474,697,332,465,923,505,146,150,805,929,748,134,123,225,161,516,818,921,204,706,298,495,24,477,418,338,544,216,10,304,21,399,99,117,849,356,533,639,115,909,840,976,457,766,897,569,831,76,193,628,435,919,243,346,446,600,722,33,208,184,100,851,140,223,939,69,933,573,781,214,784,763,826,389,629,330,543,195,429,95,407,554,177,49,862,74,56,188,799,720,7,391,898,774,796,30,39,112,928,660,787,691,520,378,249,381,314,509,650,326,199,290,52,764,571,878,13,833,116,587,674,472,952,244,552,889,821,129,231,956,531,47,420,190,789,416,458,373,612,292,865,431,15,562,761,67,397,631,382,700,843,534,797,83,988,91,390,126,920,887,147,468,915,814,630,957,259,563,570,473,440,417,34,255,308,680,235,866,485,993,127,9,425,804,940,750,567,247,645,248,447,539,528,545,383,401,685,219,421,136,269,714,40,68,733,148,841,233,830,364,282,772,492,237,478,121,155,856,582,172,404,980,270,168,374,209,303,848,278,385,676,402,938,934,670,66,124,78,829,137,950,206,90,656,886,45,992,973,212,912,36,695,959,196,449,986,178,876,484,325,410,312,846,903,751,490,767,877,746,925,262,394,322,904,433,696,907,900,745,82,872,305,102,344,718,806,882,924,800,824,97,526,154,785,428,349,850,727,369,79,783,565,352,564,546,732,624,798,641,483,666,675,944,839,72,28,742,143,910,788,649,295,119,816,443,37,451,860,652,953,260,668,580,547,470,317,328,927,880,642,156,365,181,31,159,118,12,288,125,307,141,864,809,791,779,688,213,54,396,871,705,807,593,607,602,585,802,801,677,16,970,958,234,592,665,286,371,1,967,723,947,89,227,313,316,671,139,175,949,854,776,220,715,413,664,444,643,619,166,731,883,902,145,625,634,626,276,863,775,527,207,442,291,183,348,773,25,922,226,987,120,489,263,236,549,606,568,535,899,179,888,358,636,320,92,890,595,989,8,353,942,743,372,498,542,737,974,94,19,403,758,937,275,48,180,932,327,654,541,894,557,273,96,811,605,294,62,930,635,239,456,698,525,812,572,961,583,822,795,683,191,267,228,448,203,494,111,164]","arrowleft","","true","0","8","200","1000","[""0094_N1000_K0200_CLIQUE"",""0092_N1000_K0200_NOCLIQUE""]"
"","","","","","audio-keyboard-response","64","230083","0.0-56.0-0.0-1.0","","null","audio_feedback/right/coin01.mp3","null","","","","","0","8","200","1000","[""0094_N1000_K0200_CLIQUE"",""0092_N1000_K0200_NOCLIQUE""]"
"","","","","","canvas-keyboard-response","65","231840","0.0-57.0-0.0-0.0","","753","","arrowright","[48,645,786,792,422,806,122,477,20,173,275,15,296,29,58,260,76,140,224,678,51,804,651,712,956,341,202,801,537,613,112,164,282,784,303,299,899,781,172,457,160,355,235,127,507,69,175,454,455,347,936,397,723,744,265,161,790,726,817,854,68,998,638,273,305,272,608,23,690,922,353,618,238,577,698,975,823,276,205,338,250,878,947,527,83,633,365,165,583,737,361,298,228,816,829,174,74,636,458,815,326,492,564,865,677,924,468,836,211,33,759,751,522,777,219,785,771,98,673,555,141,954,19,310,152,903,203,710,585,120,740,521,352,198,416,218,674,705,920,75,512,809,465,285,888,736,708,955,589,13,914,702,49,287,839,966,470,323,623,910,978,307,47,85,919,136,448,745,8,602,16,207,767,375,497,7,695,264,121,683,516,25,86,637,779,342,411,185,789,499,713,863,472,223,114,478,911,473,283,526,532,59,368,176,89,834,93,567,573,546,901,559,1,2,534,137,837,607,237,253,327,574,255,927,961,570,808,511,757,208,95,531,939,139,334,192,963,284,107,807,289,357,379,739,125,443,828,148,44,350,230,650,588,841,720,280,216,561,797,389,643,882,10,321,459,867,156,309,201,856,378,869,405,220,452,402,96,884,549,312,572,177,590,568,730,538,579,811,773,872,895,783,989,215,880,768,244,41,859,142,611,225,500,145,199,605,931,204,766,77,634,447,842,247,409,488,61,434,592,300,743,150,813,990,599,415,135,149,295,943,306,118,169,681,586,308,100,197,386,479,14,502,877,184,485,370,701,615,640,935,971,716,932,950,861,394,912,182,959,435,393,563,196,259,547,697,717,930,791,480,128,749,188,130,138,503,604,666,143,22,835,688,946,21,71,270,742,229,993,866,437,364,960,268,30,390,209,217,748,860,449,116,348,628,576,933,73,840,72,106,331,629,345,186,178,699,212,578,227,898,153,876,814,741,432,105,593,680,728,647,825,798,676,704,765,703,297,54,682,383,617,329,981,99,269,894,685,596,980,413,277,376,735,525,274,380,830,88,36,445,870,64,206,241,752,535,168,79,776,862,351,591,738,729,875,755,853,575,999,31,887,155,948,550,885,94,996,158,493,684,518,292,117,796,267,18,157,746,412,97,27,187,439,513,873,35,794,462,340,964,213,474,46,335,775,489,55,923,968,425,279,819,595,692,906,11,436,78,124,620,661,234,486,992,382,770,481,129,154,581,133,958,979,414,236,278,995,101,167,57,232,104,569,245,336,952,387,0,240,358,641,969,929,991,750,257,926,110,294,679,944,418,494,249,994,696,571,317,982,648,908,957,441,582,832,403,883,123,610,366,756,693,293,669,496,4,210,897,598,314,802,691,369,52,12,328,714,5,554,471,916,655,339,778,658,92,509,827,917,53,132,505,795,967,26,146,349,111,410,43,962,183,938,977,760,909,469,656,482,266,787,514,508,6,718,551,354,131,754,614,721,821,890,671,504,408,428,398,63,319,318,476,467,976,852,639,391,937,346,805,463,997,824,984,983,664,263,367,660,66,626,843,552,632,103,915,747,510,953,214,654,491,594,646,670,360,430,940,431,986,925,115,543,580,320,612,262,689,928,524,343,126,523,39,635,621,709,506,668,972,587,644,949,180,631,662,337,921,385,879,460,536,886,700,461,34,788,544,727,530,848,433,475,517,65,772,325,722,67,261,847,87,624,846,80,831,659,406,774,56,421,803,456,429,60,630,42,490,987,732,498,3,606,194,515,533,195,281,483,540,417,426,734,395,113,286,450,826,251,362,134,881,246,891,81,601,190,495,711,311,38,119,62,419,548,344,799,553,675,332,271,302,818,356,649,851,288,501,226,855,665,965,396,942,652,70,686,539,84,758,557,82,50,820,849,322,371,159,109,423,761,622,252,893,374,144,541,316,304,822,625,600,451,377,985,725,945,560,231,151,388,108,9,427,528,363,782,905,442,242,892,258,706,464,764,91,762,667,189,562,974,619,440,484,147,466,988,243,753,222,520,399,392,845,40,694,163,597,616,28,672,558,833,401,381,603,838,868,902,858,359,37,301,810,864,324,519,420,896,291,373,731,780,793,844,907,233,857,627,529,812,584,889,566,444,687,941,715,663,404,162,970,934,17,800,372,609,951,90,724,446,453,248,254,102,769,333,763,24,487,642,171,719,32,850,556,179,407,913,707,904,315,181,565,424,874,193,200,545,438,973,256,221,918,900,239,871,384,733,653,400,290,191,170,657,330,313,45,166,542]","arrowright","","true","0","9","200","1000","[""0082_N1000_K0200_NOCLIQUE"",""0093_N1000_K0200_CLIQUE""]"
"","","","","","audio-keyboard-response","66","232835","0.0-57.0-0.0-1.0","","null","audio_feedback/right/coin01.mp3","null","","","","","0","9","200","1000","[""0082_N1000_K0200_NOCLIQUE"",""0093_N1000_K0200_CLIQUE""]"
"","","","","","canvas-keyboard-response","67","234611","0.0-58.0-0.0-0.0","","785","","arrowleft","[738,686,571,65,431,207,706,849,376,367,930,378,725,478,506,67,861,346,93,64,522,913,653,351,620,252,836,779,454,404,641,608,224,503,456,983,61,604,662,926,709,31,563,600,235,54,596,795,535,988,194,991,868,833,763,994,846,916,421,784,746,111,989,394,484,149,528,902,719,775,869,441,90,792,896,759,89,694,400,264,808,703,219,575,649,570,728,363,844,956,632,742,76,505,519,334,633,665,551,962,343,628,445,107,980,713,758,669,715,755,438,192,339,693,247,293,691,115,722,492,544,594,705,187,125,51,298,767,695,276,442,14,365,165,331,542,69,102,213,342,611,68,245,333,135,986,96,806,179,605,190,406,937,951,322,831,296,689,502,545,790,106,242,969,390,636,146,263,371,36,495,845,301,946,486,330,999,654,840,21,116,340,487,10,711,786,332,944,682,672,757,48,939,205,516,307,696,644,18,120,17,554,957,350,223,352,142,217,176,692,760,622,23,140,780,559,769,925,493,627,281,147,172,188,361,816,782,955,238,28,721,123,753,288,94,428,253,260,568,237,268,393,923,764,283,452,267,837,336,532,9,13,704,80,347,313,122,228,676,556,610,308,875,887,208,240,448,290,475,971,216,229,100,643,7,451,59,151,785,642,450,186,773,847,602,460,362,586,220,900,889,70,95,947,408,137,230,38,274,735,440,424,684,323,185,364,429,851,197,348,405,966,812,908,153,968,708,515,977,710,539,443,427,201,227,862,714,423,221,619,41,84,651,289,984,40,174,842,410,19,891,905,420,6,297,612,272,168,523,114,384,211,788,446,562,501,60,860,537,598,745,679,280,270,488,414,398,626,134,655,35,415,762,843,468,189,160,970,359,754,964,965,310,949,599,797,279,668,312,57,169,932,645,269,751,765,584,822,418,439,972,933,377,337,574,16,75,625,124,127,497,794,660,407,565,318,458,180,327,490,8,119,678,998,155,103,963,105,305,667,369,518,673,914,793,383,476,368,56,195,517,830,534,825,525,401,277,796,730,387,909,734,921,841,580,630,813,589,569,591,888,396,287,774,804,558,702,974,250,357,46,587,25,397,482,871,72,750,770,800,182,697,666,747,291,777,834,892,661,514,617,826,592,453,727,948,278,353,459,982,24,938,811,832,358,918,928,412,581,616,315,550,83,1,184,261,899,650,286,718,976,973,159,778,113,434,300,386,712,657,47,472,215,609,43,481,736,474,824,138,139,52,257,615,884,130,218,740,170,166,164,635,479,4,890,561,73,354,898,878,536,265,723,815,161,232,49,461,2,566,807,311,141,783,62,88,34,748,241,375,865,173,853,675,549,820,863,399,624,349,858,77,920,37,992,942,688,110,799,63,491,579,82,911,314,129,246,275,255,409,521,58,209,583,593,436,541,652,101,462,546,513,917,355,737,582,494,638,214,552,285,597,547,857,647,607,567,422,309,603,877,659,97,316,463,466,564,882,483,426,929,86,150,548,202,538,449,897,814,656,927,22,981,701,781,156,952,720,3,729,749,646,531,126,543,50,148,262,341,866,299,631,590,881,787,996,801,392,117,109,498,674,259,874,733,817,595,512,425,477,681,204,121,212,191,941,325,236,993,772,731,639,144,716,225,471,524,74,132,637,181,294,29,402,473,819,321,249,379,499,162,867,0,990,345,455,319,171,508,768,71,895,979,761,12,271,585,244,26,231,699,894,360,411,683,98,829,338,306,509,621,526,648,618,680,248,108,664,854,175,167,601,33,183,613,614,432,382,803,776,529,196,527,329,500,328,133,557,555,634,373,606,850,577,266,87,967,79,504,756,419,864,886,919,802,827,873,154,717,480,430,910,104,520,743,444,893,356,284,912,206,55,143,915,465,798,496,940,507,987,950,540,553,447,903,344,374,32,5,370,576,39,856,15,92,872,935,805,835,821,848,880,131,931,876,302,203,258,303,145,739,870,687,904,53,658,958,200,961,226,81,45,417,726,671,435,953,295,416,324,573,959,254,317,859,677,210,11,810,744,99,157,467,741,395,243,511,906,922,640,995,975,789,885,118,530,724,907,251,389,936,193,707,985,533,27,372,879,489,128,560,403,823,809,326,978,292,828,158,766,470,335,457,838,391,960,388,256,385,437,304,700,732,136,818,855,366,839,198,199,85,852,924,234,222,685,791,690,433,239,934,464,282,485,663,381,954,943,771,901,20,945,42,572,91,233,178,629,163,177,44,698,78,883,273,623,469,413,997,510,320,752,30,152,578,670,66,588,112,380]","arrowleft","","true","0","10","183","1000","[""0016_N1000_K0183_CLIQUE"",""0046_N1000_K0183_NOCLIQUE""]"
"","","","","","audio-keyboard-response","68","235608","0.0-58.0-0.0-1.0","","null","audio_feedback/right/coin01.mp3","null","","","","","0","10","183","1000","[""0016_N1000_K0183_CLIQUE"",""0046_N1000_K0183_NOCLIQUE""]"
"","","","","","canvas-keyboard-response","69","237303","0.0-59.0-0.0-0.0","","735","","arrowright","[470,317,767,781,982,895,177,346,630,303,259,108,248,967,101,463,459,228,957,430,979,993,876,945,135,578,853,932,296,716,39,359,875,821,456,321,971,968,581,502,833,66,863,699,333,53,688,780,969,155,375,622,918,837,338,909,907,712,457,931,163,856,320,230,467,293,937,267,707,679,680,843,508,150,773,745,13,119,563,906,260,850,246,211,954,818,8,819,431,255,889,948,798,582,877,617,683,713,341,181,460,525,391,261,265,600,567,416,793,238,673,778,881,704,633,10,504,588,498,325,896,415,383,598,813,374,848,645,440,49,16,183,552,354,410,241,113,671,400,577,401,247,254,814,696,711,29,755,347,625,839,629,378,769,139,361,740,501,547,239,958,396,345,717,485,779,758,737,742,36,394,194,4,806,589,571,832,152,141,845,337,288,294,572,855,503,184,749,976,273,169,80,103,988,227,902,724,606,201,687,616,453,199,682,213,566,393,205,533,263,706,404,851,926,121,667,424,879,784,951,245,55,289,900,423,56,143,685,214,541,995,454,594,694,120,624,198,413,123,558,649,38,933,107,915,72,28,104,586,284,83,936,187,450,777,218,807,859,681,691,748,164,656,92,788,693,991,429,917,992,670,531,601,168,872,157,339,924,323,841,610,369,22,961,727,637,64,564,367,523,70,898,914,664,368,409,127,442,795,867,772,981,33,703,43,765,849,854,63,732,831,592,660,847,934,955,950,823,998,116,535,965,483,799,810,512,920,327,216,57,559,24,32,147,89,114,154,262,756,569,0,747,20,521,439,739,912,235,655,388,674,313,466,45,353,129,496,639,983,126,233,614,526,349,750,271,524,808,6,725,613,395,804,236,90,78,232,200,956,766,37,689,557,335,760,223,50,118,229,93,215,705,343,242,428,397,561,171,144,82,206,51,815,441,355,448,128,258,54,903,692,308,399,574,752,495,170,380,379,676,892,158,26,186,94,203,743,834,268,603,751,426,25,905,878,590,809,761,840,432,505,137,257,822,975,75,71,473,530,182,208,805,190,384,870,730,149,85,653,899,196,370,269,741,919,865,385,562,537,124,433,826,31,76,41,608,949,928,698,18,963,835,509,202,382,159,852,494,515,9,768,519,436,221,280,310,420,329,944,172,640,444,97,510,166,252,941,686,17,587,846,516,542,549,47,427,638,455,754,209,490,668,251,342,548,702,11,612,857,42,787,812,185,134,734,873,940,207,356,458,174,662,866,44,927,977,493,517,883,996,195,764,274,62,506,191,318,363,465,449,117,953,220,40,989,990,3,803,73,697,528,811,729,403,722,67,372,411,314,576,893,615,476,471,661,59,842,266,244,570,447,140,122,820,299,585,746,307,929,219,478,469,192,352,419,98,646,189,398,91,695,659,916,304,328,212,19,365,464,68,87,387,782,253,556,222,125,65,599,291,421,565,862,584,362,231,48,173,336,96,373,237,406,319,864,602,792,726,783,146,651,911,358,611,287,417,309,27,984,160,908,286,264,964,52,115,666,623,438,425,46,827,151,7,770,513,360,334,81,520,297,511,583,486,500,573,322,735,544,771,999,972,539,461,5,871,285,272,663,684,708,112,437,828,897,445,677,488,487,568,14,789,634,210,652,484,499,15,240,763,162,678,100,446,136,305,710,628,886,58,312,887,12,836,408,277,99,913,326,731,546,618,21,947,620,650,412,844,635,939,596,868,669,925,554,709,282,468,161,580,536,477,869,175,904,376,885,946,405,553,522,197,796,978,491,111,331,538,249,145,636,938,874,156,472,180,970,534,921,575,675,364,797,377,371,138,744,860,389,605,632,790,880,474,942,435,884,891,974,627,178,644,527,226,721,34,824,888,77,61,142,390,234,738,79,882,311,60,217,109,604,204,715,690,858,626,838,386,300,551,609,281,597,167,718,700,84,357,176,480,507,719,278,550,1,256,753,910,225,997,110,279,283,133,193,890,418,165,179,518,224,290,250,595,701,292,95,422,350,330,243,497,923,801,922,980,966,2,619,340,560,723,344,861,315,86,736,74,402,930,830,392,130,894,607,482,959,643,631,621,785,657,774,757,324,540,532,648,348,935,654,962,728,366,591,452,529,994,642,492,443,720,987,153,132,414,295,69,298,407,188,776,30,786,381,672,306,973,514,901,960,105,106,351,316,276,952,302,579,131,762,816,658,451,665,462,714,23,88,641,481,759,301,545,986,794,479,102,802,593,829,434,270,825,148,543,817,489,647,733,943,475,985,275,332,555,775,800,791,35]","arrowright","","true","0","11","183","1000","[""0032_N1000_K0183_NOCLIQUE"",""0040_N1000_K0183_CLIQUE""]"
"","","","","","audio-keyboard-response","70","238296","0.0-59.0-0.0-1.0","","null","audio_feedback/right/coin01.mp3","null","","","","","0","11","183","1000","[""0032_N1000_K0183_NOCLIQUE"",""0040_N1000_K0183_CLIQUE""]"
"","","","","","canvas-keyboard-response","71","240167","0.0-60.0-0.0-0.0","","860","","arrowright","[162,872,659,531,364,491,354,837,554,159,360,350,333,612,982,628,403,249,849,297,432,87,916,379,400,699,409,535,320,401,212,442,231,768,665,521,391,839,349,215,361,479,90,374,632,434,685,684,449,884,615,661,258,688,48,600,662,592,220,185,263,347,92,158,412,336,200,407,598,394,492,163,757,948,912,708,567,923,719,940,980,226,992,143,370,715,717,77,386,115,174,773,102,2,811,348,497,564,61,585,466,732,644,909,778,93,528,890,311,105,85,195,199,704,24,846,520,467,343,495,154,128,264,714,236,430,317,221,11,405,985,813,328,692,530,457,646,119,503,955,791,53,454,968,338,91,995,19,55,808,914,248,641,787,986,25,857,458,204,422,180,44,316,547,979,863,793,411,307,747,763,874,907,111,758,56,608,696,196,117,315,88,760,192,308,671,84,160,829,397,932,841,384,668,245,40,617,375,885,485,552,835,271,235,283,253,784,250,230,733,431,865,363,654,30,578,611,648,213,38,546,786,756,537,965,8,731,132,474,740,707,121,910,765,990,610,15,46,64,939,830,630,140,356,75,798,59,291,203,807,209,993,22,693,296,823,508,782,392,582,300,545,275,856,489,126,729,871,28,575,967,840,222,718,959,436,459,14,762,795,935,39,925,393,310,475,415,225,136,864,72,243,302,3,206,277,638,711,416,133,858,754,767,862,748,36,293,26,975,958,577,504,606,816,997,499,639,873,284,977,998,251,735,193,981,815,435,153,924,278,109,720,694,148,168,103,774,518,761,532,827,279,31,52,424,853,956,526,921,915,845,880,182,590,219,690,687,848,750,892,558,904,583,772,746,482,759,657,742,878,152,976,344,675,299,426,7,353,380,645,964,210,229,43,487,145,29,177,563,660,738,519,327,860,224,12,525,601,783,501,511,179,512,381,218,559,469,664,27,755,969,866,468,17,663,705,414,76,135,389,58,217,420,542,514,95,421,779,903,147,602,355,461,134,319,917,680,951,232,331,358,588,318,541,437,586,913,81,568,290,794,509,94,722,303,560,854,273,936,276,596,894,565,902,351,817,202,636,86,544,190,165,131,395,490,743,480,695,155,579,496,270,71,346,23,373,57,419,493,266,710,156,445,634,298,825,481,931,269,900,716,776,304,672,167,396,6,984,423,540,836,677,543,120,799,244,614,553,908,294,721,98,169,425,295,989,771,974,280,963,749,313,446,262,805,633,186,824,476,398,604,183,471,488,51,189,124,341,833,777,709,843,452,325,623,100,127,538,418,238,82,987,345,387,887,33,164,922,629,116,404,576,464,5,550,470,724,413,402,335,870,486,803,571,484,63,83,838,855,584,775,242,877,744,194,753,410,453,790,429,929,852,41,443,408,10,47,622,941,867,876,889,983,330,800,478,139,390,157,834,994,281,268,267,752,737,207,616,285,368,875,175,621,369,326,462,166,50,670,142,599,618,548,529,49,809,712,607,613,635,949,472,241,306,686,978,988,332,536,946,123,385,99,723,539,151,214,171,593,741,972,792,70,257,505,357,329,681,254,624,67,655,89,804,178,549,897,626,896,679,73,828,45,312,286,272,517,74,961,820,966,745,367,730,170,620,653,455,953,555,339,62,603,184,952,954,146,879,96,676,428,417,631,666,125,942,551,859,246,260,996,388,301,16,1,796,274,556,513,112,500,574,893,65,66,673,515,118,831,450,144,926,780,198,797,962,4,802,851,562,211,447,502,826,524,451,769,785,905,187,572,650,589,906,847,973,382,806,734,725,957,898,228,970,891,240,101,702,999,259,938,366,945,667,595,20,79,460,899,706,104,698,764,176,106,557,42,895,713,991,647,881,37,883,399,770,34,265,649,173,337,113,440,937,609,191,130,477,919,365,309,80,110,282,674,252,726,516,342,441,149,201,801,522,703,406,810,507,377,605,911,129,888,930,68,812,137,947,35,656,13,324,960,591,305,197,637,465,18,561,882,643,678,54,640,934,832,188,473,950,114,587,438,570,21,141,580,172,205,594,122,107,288,788,927,448,651,727,971,869,739,566,728,340,352,161,289,736,498,920,814,322,781,642,901,60,97,227,506,378,223,928,842,256,247,697,138,533,376,9,861,208,334,766,292,372,700,818,534,321,886,652,456,216,32,323,371,701,233,943,523,625,850,819,569,510,822,527,255,682,844,427,691,359,821,0,683,483,573,78,383,689,150,494,314,597,237,619,581,181,234,944,69,362,789,627,463,439,868,239,261,669,287,751,433,444,933,918,108,658]","arrowright","","true","0","12","167","1000","[""0069_N1000_K0167_NOCLIQUE"",""0001_N1000_K0167_CLIQUE""]"
"","","","","","audio-keyboard-response","72","241155","0.0-60.0-0.0-1.0","","null","audio_feedback/right/coin01.mp3","null","","","","","0","12","167","1000","[""0069_N1000_K0167_NOCLIQUE"",""0001_N1000_K0167_CLIQUE""]"
"","","","","","canvas-keyboard-response","73","242939","0.0-61.0-0.0-0.0","","774","","arrowleft","[924,751,531,617,4,111,509,51,343,202,305,628,446,912,450,861,394,363,110,997,49,441,569,436,722,517,335,947,876,572,499,903,69,236,930,546,985,362,878,919,281,813,927,317,188,434,960,356,106,948,528,215,145,132,164,86,272,38,34,80,163,807,608,55,795,886,514,119,810,166,492,286,64,721,322,733,197,124,846,774,821,786,901,754,815,622,911,139,445,675,989,313,347,74,983,128,897,599,30,87,984,653,755,295,302,289,956,971,910,515,43,677,66,838,534,543,344,953,588,686,325,425,259,827,532,186,224,788,773,181,868,222,507,479,858,716,703,505,783,376,646,548,172,979,396,297,348,485,739,539,153,484,929,216,121,873,601,619,473,925,842,294,568,56,791,461,250,221,366,438,598,939,278,694,798,493,797,369,831,435,349,372,597,21,969,206,612,190,949,879,701,781,290,986,410,704,234,727,442,415,952,508,916,787,140,785,97,14,490,301,843,133,585,107,778,431,613,818,527,606,747,991,656,368,883,894,387,990,709,674,933,567,649,640,833,486,7,957,156,724,541,79,469,995,312,726,225,632,212,665,455,365,447,803,209,917,192,480,274,420,378,889,308,582,874,210,565,475,743,424,799,340,449,191,503,255,670,448,23,114,416,761,419,330,158,244,578,379,609,495,896,390,683,884,193,714,282,411,456,264,219,793,50,332,165,723,467,691,695,310,688,645,355,945,913,571,346,638,717,584,24,491,657,319,287,627,249,616,73,775,131,800,920,549,826,994,712,520,179,497,426,996,125,669,336,938,513,540,908,859,370,626,374,422,681,977,965,204,464,596,892,413,600,501,155,814,667,880,159,914,805,494,580,283,162,167,802,176,151,82,637,292,907,698,702,99,777,414,217,57,934,767,893,760,12,148,36,828,639,134,251,943,27,392,175,323,338,856,982,94,547,729,519,498,961,902,741,120,500,536,173,558,277,881,771,238,15,871,811,201,320,85,928,160,864,853,8,213,230,185,476,395,326,84,228,711,296,511,752,218,812,973,923,20,840,792,615,732,241,696,987,523,443,333,48,239,926,563,966,625,460,58,759,357,465,141,836,409,678,936,315,518,261,311,76,380,819,26,860,951,577,553,963,557,324,654,845,837,288,676,203,243,885,384,398,895,229,705,2,122,126,377,587,307,891,37,252,195,516,279,942,477,144,40,634,388,854,998,707,196,772,358,685,22,551,706,386,339,183,29,454,862,522,682,452,459,673,39,93,381,621,108,41,735,142,32,300,161,823,852,964,583,544,512,421,240,329,666,458,118,555,898,180,25,269,389,693,237,328,483,373,872,182,462,576,841,402,113,635,848,207,220,922,980,629,412,855,955,658,766,801,618,550,382,266,457,932,472,276,401,146,47,466,247,170,849,67,736,769,205,968,437,44,391,169,361,877,820,668,177,664,42,54,981,101,605,260,306,570,299,636,574,423,350,273,974,839,763,900,199,935,641,510,560,535,710,954,715,112,149,631,487,867,806,643,603,451,400,352,321,147,690,353,835,857,915,591,692,521,888,931,804,19,337,762,280,482,699,496,844,154,533,433,96,471,581,738,463,958,679,758,46,526,284,403,734,123,470,6,184,331,60,817,116,661,478,304,946,293,749,506,256,993,525,700,233,45,104,263,91,590,72,187,488,68,360,718,298,316,102,314,3,866,100,662,655,756,561,309,267,950,345,342,105,779,168,830,5,77,906,918,178,611,988,62,174,265,542,671,440,78,614,504,731,258,870,354,418,566,713,439,847,432,697,604,978,375,750,851,405,545,150,602,972,992,227,430,834,214,593,770,428,13,318,383,194,909,407,75,623,271,268,941,143,689,863,790,659,808,564,554,200,647,481,999,71,530,642,967,970,18,586,832,780,28,232,397,708,816,157,429,899,824,427,444,53,1,117,684,538,291,746,61,103,579,137,882,364,650,89,745,937,109,65,253,31,52,367,171,825,275,127,660,70,393,630,959,921,468,742,537,648,573,680,0,975,633,98,189,257,794,198,753,652,595,663,765,208,9,592,730,620,246,63,17,687,737,784,575,115,399,865,757,887,211,341,850,644,81,59,559,524,245,869,334,235,728,789,748,594,248,944,327,130,976,359,223,719,890,11,231,489,725,552,556,351,226,129,904,83,744,607,822,529,474,562,262,303,88,135,417,408,35,92,589,651,720,624,33,962,672,875,768,270,453,829,610,16,371,940,764,385,136,502,782,152,809,905,796,740,776,10,285,254,406,242,404,138,95,90]","arrowleft","","true","0","13","167","1000","[""0021_N1000_K0167_CLIQUE"",""0047_N1000_K0167_NOCLIQUE""]"
"","","","","","audio-keyboard-response","74","243928","0.0-61.0-0.0-1.0","","null","audio_feedback/right/coin01.mp3","null","","","","","0","13","167","1000","[""0021_N1000_K0167_CLIQUE"",""0047_N1000_K0167_NOCLIQUE""]"
"","","","","","canvas-keyboard-response","75","245623","0.0-62.0-0.0-0.0","","733","","arrowright","[597,179,940,374,164,851,883,372,369,503,476,174,188,409,903,470,80,119,221,6,44,461,30,232,953,491,930,605,60,746,977,529,645,357,743,420,410,551,245,1,513,681,227,318,478,477,519,928,961,595,382,270,57,938,705,638,112,481,161,35,196,939,37,863,135,46,14,549,951,492,982,63,919,902,58,19,388,175,996,431,995,599,267,780,971,762,368,184,331,118,633,213,864,516,113,684,67,271,893,506,297,615,843,990,792,873,927,874,436,654,669,624,31,430,111,934,534,33,41,72,391,847,361,764,580,313,651,328,463,426,21,868,789,475,581,502,949,257,691,103,887,128,556,652,454,204,92,603,108,979,228,308,532,891,277,107,304,241,833,667,462,395,627,84,29,383,109,914,678,143,591,718,650,981,753,738,233,23,512,557,658,296,812,661,807,319,32,5,962,275,809,536,180,791,214,253,484,584,637,437,390,739,217,510,721,121,770,486,206,712,609,242,428,974,999,344,125,339,670,916,287,709,480,22,839,278,101,13,122,166,702,464,309,39,675,574,802,745,695,826,71,167,707,823,147,139,151,528,587,354,830,356,282,601,43,772,775,673,322,498,449,841,200,52,385,160,926,366,120,162,355,540,187,593,387,254,959,446,90,703,790,825,261,682,75,931,181,950,258,693,997,869,786,777,240,575,274,947,553,176,666,442,542,960,489,389,570,87,359,76,583,756,577,946,263,427,915,836,466,91,81,665,922,730,888,401,748,393,725,970,376,27,406,761,150,193,569,157,561,611,900,592,559,635,560,133,988,952,458,598,326,804,104,972,975,504,834,734,396,849,336,59,392,434,571,155,381,333,907,501,305,948,773,49,402,767,727,941,286,20,226,917,674,733,473,937,892,55,905,229,901,249,523,898,752,668,563,640,993,890,51,152,614,639,929,881,728,511,168,885,413,715,610,545,169,243,265,800,370,54,794,156,234,183,799,622,785,472,398,716,471,78,404,40,620,866,85,943,298,744,859,736,966,818,629,292,991,89,698,259,266,699,617,848,171,93,844,144,293,758,56,316,750,737,751,288,918,539,722,636,648,28,711,634,414,251,538,969,852,589,499,805,677,412,726,50,921,837,820,909,925,444,300,460,195,363,564,407,520,224,69,483,631,371,821,987,632,154,423,526,957,178,375,942,246,209,469,165,306,218,692,129,77,352,886,619,607,244,18,83,808,697,115,945,7,97,158,659,284,720,798,904,543,334,182,419,766,662,380,628,989,496,345,713,348,448,708,527,294,272,438,548,518,170,417,626,494,717,177,65,872,66,827,443,400,425,280,664,992,10,895,45,672,418,415,880,537,817,932,663,53,810,604,230,386,320,788,521,145,215,860,671,451,531,616,765,923,62,262,455,968,315,332,198,408,441,933,201,647,146,576,685,729,73,110,397,74,657,338,384,759,964,590,373,269,137,958,514,303,289,741,565,349,36,967,594,690,724,653,899,984,813,439,312,0,755,706,3,508,467,329,572,378,819,212,321,998,148,124,796,877,70,533,324,279,163,452,203,26,138,884,694,854,302,311,606,95,857,4,644,399,935,861,186,687,806,831,340,264,875,822,797,689,197,149,474,740,130,994,433,983,787,11,335,710,801,290,870,488,276,64,12,525,48,845,840,192,136,210,566,301,459,127,117,295,613,623,68,719,216,350,422,842,450,535,485,132,248,487,405,858,924,867,894,194,771,268,126,579,871,829,134,82,625,913,832,493,424,828,723,688,364,618,850,327,660,882,457,757,769,88,9,911,524,25,541,96,554,742,273,123,879,910,291,906,307,429,978,558,612,586,42,781,608,878,351,986,676,517,440,865,550,238,944,456,346,811,8,846,573,507,102,768,239,490,562,283,530,582,453,310,655,824,299,207,956,256,99,314,774,965,202,468,749,954,325,522,79,247,683,908,544,199,432,976,896,495,185,643,341,211,679,447,142,763,222,732,735,985,641,862,973,963,225,497,16,509,252,567,465,255,86,876,141,94,250,100,173,38,585,814,106,835,547,555,15,568,778,646,782,912,205,700,116,61,803,602,552,394,701,411,131,980,936,34,630,337,237,236,2,353,696,231,17,208,190,435,367,219,323,920,578,588,815,358,686,855,343,853,365,317,816,546,838,776,379,793,281,784,747,153,500,600,223,220,362,714,105,783,515,330,856,779,285,191,731,47,189,416,649,421,897,680,159,505,445,140,360,889,479,342,642,482,795,656,760,98,754,621,704,347,114,24,172,955,235,403,377,260,596]","arrowright","","true","0","14","150","1000","[""0066_N1000_K0150_NOCLIQUE"",""0073_N1000_K0150_CLIQUE""]"
"","","","","","audio-keyboard-response","76","246616","0.0-62.0-0.0-1.0","","null","audio_feedback/right/coin01.mp3","null","","","","","0","14","150","1000","[""0066_N1000_K0150_NOCLIQUE"",""0073_N1000_K0150_CLIQUE""]"
"","","","","","canvas-keyboard-response","77","248383","0.0-63.0-0.0-0.0","","861","","arrowleft","[519,265,404,426,396,530,8,870,796,261,183,301,193,684,974,481,537,492,734,982,539,794,462,318,631,872,335,353,411,860,84,415,911,87,368,491,643,93,644,428,385,181,793,520,319,926,239,281,723,736,658,16,497,671,669,135,425,928,43,915,807,814,328,313,932,850,113,34,210,752,48,826,622,257,241,306,167,869,784,186,753,331,1,951,544,754,287,356,774,233,639,899,286,329,19,441,227,416,12,569,213,274,291,54,438,212,445,192,300,424,656,567,156,852,275,127,340,196,120,875,316,221,409,116,351,420,651,940,293,45,478,453,979,584,207,905,164,482,429,678,827,509,450,673,547,645,527,540,483,246,436,943,812,996,642,251,785,341,170,737,303,908,641,367,634,464,585,379,267,376,342,145,741,81,231,966,625,554,918,119,4,253,249,302,606,597,466,779,180,155,746,73,129,266,635,41,525,272,137,806,598,700,83,350,633,211,423,922,545,49,111,95,201,269,405,68,176,485,80,247,86,930,444,304,244,310,628,363,708,879,190,903,380,856,154,139,952,999,900,718,147,248,389,171,855,849,896,839,327,535,349,775,557,288,479,63,366,112,432,230,378,898,522,923,815,533,197,742,546,563,611,321,571,77,499,292,817,381,455,878,263,337,98,885,866,75,830,456,804,777,637,410,717,813,591,909,627,433,159,882,564,589,685,733,679,861,570,58,950,956,348,449,52,252,262,786,414,821,166,102,278,987,26,173,729,322,151,682,706,489,226,44,70,150,503,532,232,22,524,496,572,801,264,803,128,495,510,989,748,845,65,743,668,357,390,200,844,594,994,297,846,465,502,188,573,57,906,934,295,964,500,202,277,874,343,104,726,6,599,783,142,89,699,458,593,914,96,149,222,798,90,371,493,254,555,788,727,459,681,138,912,650,663,370,630,38,732,880,863,97,917,936,161,91,649,258,792,851,696,568,397,575,949,452,101,818,920,978,158,256,688,109,25,448,586,687,725,352,412,40,427,747,468,766,580,516,157,970,614,927,944,543,913,377,886,362,191,832,372,386,707,361,862,130,659,162,189,375,797,117,430,494,981,756,738,422,887,24,778,986,939,704,771,841,237,172,20,206,924,323,136,757,985,857,531,859,27,755,79,762,667,697,997,15,672,960,750,498,890,820,840,122,74,744,528,919,958,365,268,582,270,3,933,871,308,931,71,37,713,822,78,152,5,85,935,758,562,359,160,383,39,307,897,46,437,831,652,975,550,942,315,954,883,51,837,623,184,963,760,480,910,177,124,552,988,787,9,765,199,289,134,731,640,781,250,576,615,234,810,761,712,833,225,395,971,364,609,972,243,536,141,387,451,501,488,174,474,907,334,836,407,382,50,69,92,724,146,534,0,391,938,620,612,921,32,279,76,18,198,294,10,705,664,317,873,59,728,169,955,745,692,980,106,259,965,624,355,487,941,513,228,484,559,560,373,881,990,998,144,115,406,457,440,360,220,962,299,36,600,394,398,55,490,56,165,579,828,209,245,507,823,961,305,710,588,648,714,601,680,179,64,132,242,384,454,730,780,418,711,799,143,983,864,690,447,603,566,847,229,653,805,280,505,435,336,182,853,661,695,977,937,694,889,260,35,995,168,66,957,811,470,273,605,298,675,802,399,53,654,676,848,945,549,309,204,31,215,392,553,929,472,621,506,344,647,21,577,517,916,902,443,326,467,854,769,419,835,891,276,431,72,345,185,108,759,178,103,740,662,561,439,235,17,118,285,469,751,175,953,782,339,512,401,735,764,716,892,660,240,548,590,148,626,770,214,28,290,674,925,583,604,629,888,816,413,320,67,208,768,701,475,677,521,330,719,541,60,7,88,153,574,993,255,959,388,105,282,968,311,442,486,868,638,163,110,791,374,511,894,2,30,984,657,477,216,693,581,333,417,618,542,515,29,133,619,14,518,283,610,616,332,636,655,834,819,538,795,13,722,325,595,976,476,686,23,400,809,94,709,991,461,829,800,558,772,608,271,131,969,473,691,824,203,825,689,973,683,596,471,789,592,720,187,218,877,11,421,842,607,715,876,346,236,776,393,460,587,354,107,867,408,121,504,82,195,858,947,114,312,895,773,632,901,99,702,665,347,61,617,224,324,358,42,296,238,698,126,670,578,338,62,194,523,369,904,219,529,666,314,613,284,843,514,884,602,402,217,205,808,948,223,790,33,749,893,767,551,703,140,946,100,123,646,446,838,967,721,526,763,403,125,565,434,508,739,556,865,47,463,992]","arrowleft","","true","0","15","150","1000","[""0040_N1000_K0150_CLIQUE"",""0029_N1000_K0150_NOCLIQUE""]"
"","","","","","audio-keyboard-response","78","249368","0.0-63.0-0.0-1.0","","null","audio_feedback/right/coin01.mp3","null","","","","","0","15","150","1000","[""0040_N1000_K0150_CLIQUE"",""0029_N1000_K0150_NOCLIQUE""]"
"","","","","","canvas-keyboard-response","79","251790","0.0-64.0-0.0-0.0","","1422","","arrowright","[521,768,698,711,147,41,477,789,710,359,168,335,193,469,838,438,439,686,40,868,778,851,298,632,459,69,72,309,897,846,515,256,161,860,224,413,821,21,784,825,473,324,129,744,999,713,58,976,200,373,937,644,87,465,931,26,957,323,343,37,8,922,981,167,160,107,631,511,683,602,218,187,836,494,234,282,760,712,526,162,503,944,174,773,753,231,31,952,600,418,883,251,822,94,138,4,101,486,871,969,619,97,817,157,954,104,693,878,344,786,175,109,716,552,270,532,738,924,365,440,15,861,460,645,525,241,290,179,949,946,899,151,346,970,431,601,70,265,558,463,105,329,662,670,159,596,625,381,932,637,985,384,754,524,839,462,968,284,259,704,47,837,581,841,616,801,652,611,479,988,492,947,178,278,12,81,113,189,572,814,399,615,761,88,475,150,303,326,550,702,367,56,984,799,849,690,14,573,580,386,977,609,379,892,618,809,452,461,719,103,819,518,785,27,996,539,331,153,17,7,46,285,390,221,724,449,792,540,205,709,570,758,294,375,380,911,425,202,542,382,93,982,280,447,213,155,523,672,796,788,353,927,971,209,470,146,904,679,215,352,495,60,222,79,555,629,65,350,513,264,291,575,2,443,67,741,235,376,302,85,247,208,782,546,687,807,52,714,98,482,260,993,407,887,126,325,212,271,918,320,396,620,936,148,627,125,502,516,855,680,219,898,593,466,49,116,499,190,467,442,867,810,852,181,722,389,30,765,565,874,419,424,489,354,770,876,509,790,973,808,410,501,43,520,685,39,328,747,289,681,296,717,613,90,848,203,238,427,152,406,464,180,621,450,3,273,858,650,865,86,735,62,172,888,355,248,930,728,548,269,1,791,184,655,158,237,659,715,557,752,233,242,33,732,774,188,102,997,421,108,342,695,195,345,554,164,668,588,771,476,383,862,257,803,886,757,95,759,263,966,243,800,797,651,689,960,538,730,20,423,228,820,961,229,170,266,63,674,579,935,246,317,692,322,787,377,647,225,900,939,844,879,598,750,497,392,347,959,945,873,114,827,211,135,220,448,806,586,854,972,42,480,763,191,906,206,45,643,314,995,606,176,395,748,556,857,749,78,316,913,646,73,667,793,253,11,498,740,998,708,624,287,169,204,156,533,578,850,559,120,245,89,991,430,61,456,551,823,766,843,736,628,661,910,412,764,214,989,595,351,649,5,653,994,378,965,514,173,426,921,657,734,813,544,864,144,261,471,53,908,543,694,185,884,71,707,831,106,684,795,885,493,804,987,676,337,236,847,420,369,727,622,136,295,374,132,677,496,304,25,739,775,483,826,893,75,742,582,914,964,149,594,962,568,361,591,951,731,942,437,143,23,612,307,673,275,362,912,249,165,318,725,444,640,10,481,780,57,720,537,458,605,986,433,597,36,356,805,943,510,756,451,299,491,721,549,896,279,82,122,397,824,905,733,571,357,110,118,802,297,577,536,18,505,394,500,96,68,283,409,779,348,617,186,311,564,842,201,703,198,895,9,455,512,77,121,154,422,306,636,321,276,372,948,530,171,338,869,890,901,882,192,83,334,117,881,584,84,255,891,16,743,127,281,166,877,671,401,434,239,967,870,312,691,941,666,562,370,403,364,330,845,859,391,340,100,196,783,216,112,669,700,80,547,142,250,678,349,737,468,393,194,889,639,44,230,953,417,834,955,656,286,923,385,769,38,268,333,133,983,585,308,446,665,183,223,226,66,210,963,919,990,92,706,934,182,828,504,641,436,140,141,626,363,915,59,244,454,701,872,124,933,91,485,507,856,541,729,387,428,32,301,111,522,608,829,566,723,19,315,833,402,207,929,29,64,638,574,404,76,139,755,866,508,975,272,916,305,258,563,840,197,22,408,339,28,262,217,830,777,227,134,745,634,633,569,55,811,277,751,119,798,818,925,958,293,130,696,635,137,902,648,478,445,0,99,561,920,416,607,400,718,781,776,310,658,24,863,48,623,199,490,358,926,327,519,950,688,682,583,332,13,992,414,131,894,145,553,50,506,366,115,816,267,398,528,940,705,371,128,535,432,980,545,288,534,252,74,726,767,560,35,567,903,34,630,487,610,429,604,956,603,812,405,938,654,589,163,697,664,675,240,587,415,292,300,576,517,388,435,472,974,488,341,978,441,484,835,815,642,592,663,529,794,979,336,51,274,772,762,928,909,917,313,875,527,880,177,319,54,123,232,457,254,746,474,853,453,590,368,907,531,832,699,660,6,599,360,614,411]","arrowright","","true","0","16","133","1000","[""0086_N1000_K0133_NOCLIQUE"",""0079_N1000_K0133_CLIQUE""]"
"","","","","","audio-keyboard-response","80","252782","0.0-64.0-0.0-1.0","","null","audio_feedback/right/coin01.mp3","null","","","","","0","16","133","1000","[""0086_N1000_K0133_NOCLIQUE"",""0079_N1000_K0133_CLIQUE""]"
"","","","","","canvas-keyboard-response","81","255808","0.0-65.0-0.0-0.0","","2068",""," ","[891,788,54,226,345,65,782,420,835,410,714,7,83,677,716,425,431,272,213,974,250,438,169,271,47,581,501,254,132,262,217,241,347,529,608,325,934,563,300,269,333,478,351,680,950,364,575,924,445,257,216,480,734,460,498,515,432,963,834,865,34,183,499,160,375,482,721,4,786,366,647,797,168,282,437,853,173,585,559,298,860,999,656,868,693,10,395,177,440,848,404,530,679,0,115,747,610,349,983,146,267,602,975,579,621,552,773,541,56,194,472,448,830,631,221,844,251,696,393,102,606,629,387,654,346,816,291,27,476,740,53,492,550,507,224,627,66,465,576,703,991,452,253,649,377,41,778,442,228,685,151,521,538,474,359,910,964,609,549,435,275,852,244,60,379,838,332,858,911,702,595,884,305,258,681,622,828,560,39,511,626,887,690,419,724,760,867,730,211,574,374,770,468,555,927,839,645,537,400,125,643,316,590,849,342,565,249,972,171,299,992,762,444,908,668,384,365,952,255,113,623,619,557,388,414,764,295,148,932,533,412,808,641,667,707,449,227,674,401,648,717,961,905,334,238,940,28,729,100,8,281,504,676,790,851,361,11,321,854,900,121,69,904,706,441,977,962,486,477,127,153,546,212,176,59,430,309,237,571,423,993,426,202,358,15,873,302,781,49,598,750,64,998,836,922,199,985,390,554,179,840,475,6,995,684,672,368,164,266,877,982,698,363,304,841,489,159,955,935,116,273,110,630,462,219,192,898,725,454,551,91,233,763,16,382,453,709,586,402,639,307,398,785,520,289,525,165,292,733,916,793,268,455,513,861,688,837,738,306,545,252,134,340,640,862,214,51,743,446,801,625,644,803,577,411,137,76,206,687,678,536,765,893,592,543,605,43,18,943,181,488,917,381,650,965,48,417,196,802,421,876,996,205,946,14,616,357,892,193,774,918,290,885,37,929,895,86,178,376,976,25,328,464,276,787,691,106,748,811,564,855,167,318,331,270,324,456,232,880,283,490,50,296,277,981,637,88,758,195,483,30,383,699,230,457,24,236,561,190,708,611,810,240,866,118,466,385,980,881,327,596,184,956,1,635,147,655,652,286,123,766,700,265,843,344,657,597,875,604,794,958,103,287,399,646,369,495,373,77,661,987,568,94,473,754,642,170,767,945,355,784,55,145,314,822,722,370,45,726,683,73,829,757,806,761,22,745,711,408,863,223,632,624,651,187,620,229,813,46,278,986,197,162,191,500,297,21,218,522,111,847,775,434,311,235,957,245,13,207,728,317,566,9,540,174,243,556,126,424,512,746,220,203,471,129,259,85,823,697,62,682,161,569,505,389,526,142,294,112,362,36,320,371,979,941,879,582,967,380,274,578,415,731,403,749,889,713,149,418,61,938,350,42,603,491,759,878,573,315,209,894,312,535,189,805,225,798,988,886,57,694,239,485,248,234,172,303,527,989,120,896,664,593,553,32,719,710,308,502,628,720,872,200,175,827,966,70,856,718,413,90,692,131,2,906,447,98,591,686,960,470,119,494,542,96,600,323,599,920,587,201,821,658,518,313,87,671,497,936,484,392,789,5,407,133,615,919,58,139,705,109,614,310,589,487,451,182,673,899,117,78,101,931,506,128,367,772,712,336,338,768,458,973,544,665,436,443,508,736,378,427,155,753,812,912,158,850,40,701,584,978,188,208,72,89,256,547,735,510,12,756,17,353,814,152,937,356,776,231,198,670,396,815,122,156,341,755,261,864,826,391,509,723,994,804,800,825,795,114,79,799,503,923,930,93,984,19,780,777,660,523,348,820,135,68,944,818,659,84,871,322,280,817,150,372,204,517,925,439,970,588,246,792,942,926,185,633,329,548,124,969,949,928,666,739,669,31,809,791,744,824,901,428,23,613,264,263,136,742,769,107,636,108,335,82,971,634,92,288,450,831,405,97,653,422,516,528,607,939,397,479,143,44,913,779,461,105,874,741,180,459,638,144,954,617,947,406,354,285,715,832,870,469,52,618,570,493,35,869,222,990,352,857,583,260,675,279,429,558,567,572,67,63,612,845,154,293,948,737,968,138,888,524,997,819,140,951,166,38,343,215,481,463,386,71,807,26,104,704,882,890,771,959,467,519,859,903,695,796,689,141,416,130,783,163,330,157,33,3,921,662,534,360,580,751,914,186,81,752,727,601,732,897,663,433,20,883,409,842,75,953,99,514,95,562,337,284,846,933,210,80,247,539,907,531,242,339,915,326,496,833,532,301,74,394,594,29,902,909,319]","arrowright","","","0","17","133","1000","[""0002_N1000_K0133_NOCLIQUE"",""0077_N1000_K0133_CLIQUE""]"
"","","","","","audio-keyboard-response","82","256878","0.0-65.0-0.0-1.0","","null","audio_feedback/shuffles/shuffle01.mp3","null","","","","","0","17","133","1000","[""0002_N1000_K0133_NOCLIQUE"",""0077_N1000_K0133_CLIQUE""]"
"","","","","","canvas-keyboard-response","83","259002","0.0-65.1-0.1-0.1","","1145","","arrowright","[816,684,142,405,186,972,255,570,965,185,243,907,962,722,833,744,220,519,233,987,591,800,974,200,843,714,899,301,996,761,117,921,941,408,328,304,79,345,895,178,263,153,827,327,372,695,402,380,127,498,562,551,980,870,396,585,757,175,338,30,461,569,373,129,99,958,848,952,968,942,323,246,393,441,764,493,285,245,513,107,911,986,949,797,838,778,436,386,642,48,706,700,274,914,796,144,904,492,216,894,64,750,241,637,356,611,60,651,105,412,665,300,732,7,92,116,31,659,454,196,655,336,289,823,146,265,853,813,130,297,433,669,807,222,482,293,886,544,864,206,341,624,831,808,218,654,786,181,226,355,923,313,752,766,511,643,817,124,198,775,634,910,905,43,891,953,913,969,112,705,675,38,733,479,421,305,294,576,110,821,113,44,231,394,268,277,450,352,814,165,65,970,623,69,22,119,252,635,514,929,431,889,188,256,762,6,505,366,189,599,497,316,314,571,756,159,109,211,350,205,719,828,363,78,242,87,606,203,937,792,555,981,781,382,641,943,157,685,406,480,917,210,57,594,619,325,282,180,747,588,998,62,925,657,260,892,506,806,879,592,249,239,936,281,822,597,858,262,91,40,75,600,151,850,510,391,539,596,805,307,459,425,549,556,410,934,111,565,763,235,704,291,278,716,24,626,975,930,207,557,36,884,644,667,802,381,349,857,192,367,258,526,841,867,177,184,946,324,452,963,971,859,818,212,759,709,93,267,734,417,204,564,19,533,143,613,710,615,16,17,14,435,661,167,214,672,25,683,76,520,697,532,501,595,559,465,902,190,666,98,359,715,868,342,997,208,979,880,751,542,602,88,290,131,563,187,464,403,729,500,825,51,478,161,664,898,453,523,589,944,671,384,320,966,377,209,45,141,61,528,54,237,94,783,878,182,224,836,169,888,753,59,854,166,810,863,901,390,801,238,545,442,407,787,581,620,179,535,780,737,793,173,628,489,915,317,451,760,906,723,354,973,383,195,202,102,887,790,397,502,517,335,940,133,552,582,496,3,374,244,138,247,950,86,302,784,444,330,395,653,735,74,767,991,959,438,830,484,777,333,824,375,251,617,922,548,158,73,137,296,834,720,912,989,360,103,608,331,702,236,755,616,768,785,10,812,27,988,681,688,677,686,861,139,229,961,23,2,420,101,447,135,18,455,724,413,47,794,956,46,708,273,731,649,20,340,53,463,881,839,553,219,726,583,670,152,900,485,176,232,168,474,885,645,908,503,847,584,250,213,37,12,201,699,428,287,603,508,486,845,125,288,319,456,33,896,967,32,55,919,426,215,230,765,276,718,309,771,776,280,399,537,835,115,804,852,122,261,460,306,693,769,593,701,932,357,799,745,640,647,791,717,120,81,266,739,566,400,310,903,558,580,947,66,392,803,815,770,631,992,423,437,228,993,318,849,840,748,844,96,668,609,332,935,541,512,504,193,865,458,121,28,223,471,984,678,439,404,575,567,561,254,106,938,829,170,286,725,347,227,598,462,337,610,573,897,424,916,58,951,622,604,676,298,945,162,41,434,978,312,618,385,746,148,883,26,351,194,140,132,531,877,648,52,8,873,507,758,370,625,691,72,432,164,650,15,379,422,217,976,811,772,156,149,985,114,264,416,855,321,339,467,494,605,860,154,225,832,630,694,712,632,440,457,663,411,893,5,449,516,183,846,521,711,948,633,365,371,348,0,875,990,9,90,430,882,960,145,652,728,123,529,673,954,89,612,522,353,601,820,257,819,740,82,443,248,869,388,470,472,346,638,364,754,983,419,171,481,629,126,378,866,789,703,409,468,851,926,587,368,525,84,931,67,939,191,56,924,782,389,358,736,627,271,487,448,369,554,29,499,100,743,698,466,842,491,957,469,71,927,272,13,160,234,155,689,269,994,707,680,322,329,134,527,749,590,909,77,546,636,674,398,473,876,577,543,656,741,614,779,679,11,658,136,660,42,999,713,560,279,682,4,995,856,490,826,639,773,39,253,21,518,240,515,874,445,534,977,646,982,311,49,270,862,50,483,429,607,1,774,475,284,97,579,70,85,343,147,795,586,150,928,308,401,299,221,292,872,362,495,418,128,95,550,574,118,524,540,538,68,692,275,376,536,621,568,730,283,727,837,696,295,530,83,788,738,172,578,361,742,476,809,721,427,446,174,955,920,199,326,315,964,509,35,662,488,547,798,415,871,387,477,63,690,572,303,890,334,687,344,918,933,197,80,108,163,259,414,34,104]","arrowright","","true","0","17","133","1000","[""0002_N1000_K0133_NOCLIQUE"",""0077_N1000_K0133_CLIQUE""]"
"","","","","","audio-keyboard-response","84","259992","0.0-65.1-0.1-1.1","","null","audio_feedback/right/coin01.mp3","null","","","","","0","17","133","1000","[""0002_N1000_K0133_NOCLIQUE"",""0077_N1000_K0133_CLIQUE""]"
"","","","","","canvas-keyboard-response","85","262827","0.0-66.0-0.0-0.0","","1794",""," ","[735,398,952,11,718,562,163,684,694,856,509,293,6,111,570,266,630,45,730,851,608,576,94,36,638,442,580,844,637,673,34,827,235,900,122,223,933,197,21,245,129,677,752,250,892,591,160,416,187,15,703,670,512,128,561,485,282,492,424,944,686,65,832,242,378,660,846,150,192,554,514,331,950,326,989,276,350,44,108,620,507,42,754,220,123,77,813,100,132,322,37,980,345,456,758,785,887,40,938,283,721,634,920,767,38,727,585,968,255,701,577,464,375,589,823,64,973,397,744,462,369,595,546,372,890,737,208,498,715,550,134,658,329,527,931,241,711,991,816,749,376,39,402,33,215,771,917,349,960,273,41,72,940,857,806,342,333,505,610,265,148,607,667,908,760,175,351,341,69,756,140,648,120,772,556,603,808,854,93,97,606,837,878,819,788,510,357,609,643,377,381,268,469,417,433,170,252,904,237,852,490,484,502,661,453,176,410,363,222,271,639,314,778,440,674,729,777,133,20,380,621,587,334,127,432,825,503,518,452,47,998,901,757,216,356,328,836,951,616,340,217,569,818,906,875,600,657,254,185,191,930,430,871,918,724,147,873,218,796,207,71,16,659,421,627,792,53,983,946,791,355,896,953,708,828,348,644,144,59,590,409,305,393,124,280,313,110,650,143,725,915,750,285,972,668,633,625,905,947,523,418,889,769,358,27,956,149,154,524,977,414,8,240,80,929,104,3,571,263,781,914,614,68,0,922,764,497,193,257,732,558,753,489,461,22,740,910,699,287,243,700,817,142,629,731,575,189,1,107,244,869,364,702,278,291,272,28,476,672,820,613,682,937,829,19,809,343,165,733,717,789,359,565,942,797,912,612,2,726,786,43,604,641,103,748,310,339,519,177,231,739,765,787,439,446,315,57,26,666,794,448,522,766,141,770,783,88,25,297,115,262,212,379,800,136,913,716,578,201,181,553,826,395,387,927,713,965,898,307,654,137,259,611,784,66,867,7,691,992,394,624,58,988,277,560,963,304,48,188,707,18,719,615,508,116,746,85,572,982,112,412,533,457,87,173,249,413,229,444,83,695,81,289,337,463,454,909,834,95,723,204,628,162,838,599,761,294,303,640,534,450,601,747,230,429,516,478,449,619,311,332,530,881,117,415,592,96,705,473,821,152,532,233,745,564,274,663,839,325,675,168,211,970,795,807,535,593,655,902,126,290,118,164,517,487,662,408,883,774,258,596,321,803,921,455,145,275,738,955,985,347,840,227,74,897,261,845,528,423,435,253,23,801,862,669,903,557,161,121,782,981,135,969,238,119,780,224,199,336,520,76,943,967,400,842,581,14,993,986,714,882,815,698,183,99,805,636,264,422,354,990,386,90,205,32,537,978,194,465,374,49,911,994,916,886,434,773,346,474,736,547,180,225,248,301,870,371,720,82,89,865,864,493,538,996,172,775,84,877,895,288,957,323,174,428,652,939,824,925,934,984,583,932,848,594,872,309,728,488,696,987,962,866,203,407,63,584,447,632,437,460,979,759,367,114,10,388,234,690,710,506,742,269,54,971,685,811,353,436,689,362,859,843,267,295,411,997,681,125,284,279,653,755,383,656,466,306,531,623,646,406,320,392,876,385,539,56,171,961,642,680,300,91,475,649,664,810,403,458,130,480,352,511,441,551,491,166,17,86,344,741,495,651,139,214,209,399,251,213,647,676,687,776,573,849,419,515,151,544,105,98,396,548,67,318,159,373,521,549,31,602,78,618,907,404,286,179,893,709,954,459,384,751,855,35,885,443,324,597,365,617,198,299,75,712,847,995,966,874,483,799,138,500,891,579,382,232,552,29,935,109,555,790,860,146,679,426,975,61,743,186,62,182,605,178,582,574,822,158,948,327,894,830,762,157,706,228,425,70,868,370,169,292,260,543,671,79,338,567,298,246,405,665,622,471,722,704,504,438,949,525,477,536,529,919,368,12,4,853,540,391,481,559,202,926,270,239,683,884,113,763,631,73,361,5,814,46,513,445,693,999,184,899,598,588,804,959,479,317,542,102,692,221,941,401,924,835,779,635,833,793,335,974,30,499,928,831,850,92,431,106,52,360,888,9,366,427,195,468,501,482,861,936,256,196,586,319,812,541,472,470,880,390,841,545,879,568,131,496,451,563,247,206,802,768,155,24,296,526,964,330,167,688,958,734,50,236,51,308,200,226,486,316,389,190,678,281,219,566,153,945,923,858,798,13,863,976,645,101,60,420,626,55,494,156,210,467,697,302,312]","arrowleft","","","0","18","117","1000","[""0016_N1000_K0117_CLIQUE"",""0004_N1000_K0117_NOCLIQUE""]"
"","","","","","audio-keyboard-response","86","263875","0.0-66.0-0.0-1.0","","null","audio_feedback/shuffles/shuffle01.mp3","null","","","","","0","18","117","1000","[""0016_N1000_K0117_CLIQUE"",""0004_N1000_K0117_NOCLIQUE""]"
