"success","timeout","failed_images","failed_audio","failed_video","trial_type","trial_index","time_elapsed","internal_node_id","view_history","rt","stimulus","response","nodes_order","correct_response","graphs_couple","accuracy","block_index","presentation_index","clique_size","graph_size","graphs_names"
"true","false","[]","[]","[]","preload","0","364","0.0-0.0","","","","","","","","","","","","",""
"","","","","","pavlovia","1","855","0.0-1.0","","","","","","","","","","","","",""
"","","","","","instructions","2","4250","0.0-2.0","[{""page_index"":0,""viewing_time"":2575},{""page_index"":1,""viewing_time"":812}]","3388","","","","","","","","","","",""
"true","false","[]","[]","[]","preload","3","5877","0.0-3.0","","","","","","","","","","","","",""
"","","","","","instructions","4","80490","0.0-4.0","[{""page_index"":0,""viewing_time"":779},{""page_index"":1,""viewing_time"":592},{""page_index"":2,""viewing_time"":473},{""page_index"":3,""viewing_time"":631},{""page_index"":4,""viewing_time"":611},{""page_index"":5,""viewing_time"":1377},{""page_index"":6,""viewing_time"":574},{""page_index"":7,""viewing_time"":376},{""page_index"":8,""viewing_time"":419},{""page_index"":9,""viewing_time"":482},{""page_index"":10,""viewing_time"":506},{""page_index"":11,""viewing_time"":606},{""page_index"":12,""viewing_time"":403},{""page_index"":13,""viewing_time"":363},{""page_index"":14,""viewing_time"":386},{""page_index"":15,""viewing_time"":360},{""page_index"":16,""viewing_time"":414},{""page_index"":17,""viewing_time"":501},{""page_index"":18,""viewing_time"":336},{""page_index"":19,""viewing_time"":488},{""page_index"":20,""viewing_time"":498},{""page_index"":21,""viewing_time"":353},{""page_index"":22,""viewing_time"":431},{""page_index"":23,""viewing_time"":412},{""page_index"":24,""viewing_time"":372},{""page_index"":25,""viewing_time"":363},{""page_index"":26,""viewing_time"":490},{""page_index"":27,""viewing_time"":327},{""page_index"":28,""viewing_time"":1924},{""page_index"":29,""viewing_time"":368},{""page_index"":30,""viewing_time"":409},{""page_index"":31,""viewing_time"":1287},{""page_index"":32,""viewing_time"":3762},{""page_index"":33,""viewing_time"":2590},{""page_index"":32,""viewing_time"":8315},{""page_index"":33,""viewing_time"":1214},{""page_index"":34,""viewing_time"":378},{""page_index"":35,""viewing_time"":894},{""page_index"":34,""viewing_time"":297},{""page_index"":33,""viewing_time"":2939},{""page_index"":34,""viewing_time"":354},{""page_index"":35,""viewing_time"":2488},{""page_index"":36,""viewing_time"":1496},{""page_index"":37,""viewing_time"":3185},{""page_index"":36,""viewing_time"":3847},{""page_index"":37,""viewing_time"":2822},{""page_index"":38,""viewing_time"":1340},{""page_index"":39,""viewing_time"":755},{""page_index"":40,""viewing_time"":1022},{""page_index"":41,""viewing_time"":523},{""page_index"":42,""viewing_time"":481},{""page_index"":43,""viewing_time"":462},{""page_index"":44,""viewing_time"":1647},{""page_index"":43,""viewing_time"":1043},{""page_index"":44,""viewing_time"":2923},{""page_index"":43,""viewing_time"":1020},{""page_index"":44,""viewing_time"":1823},{""page_index"":45,""viewing_time"":4140},{""page_index"":46,""viewing_time"":509},{""page_index"":47,""viewing_time"":1035},{""page_index"":48,""viewing_time"":446},{""page_index"":49,""viewing_time"":756},{""page_index"":50,""viewing_time"":1675},{""page_index"":51,""viewing_time"":526}]","74615","","","","","","","","","","",""
"","","","","","instructions","5","82445","0.0-5.0","[{""page_index"":0,""viewing_time"":1952}]","1952","","","","","","","","","","",""
"true","false","[]","[]","[]","preload","6","83245","0.0-6.0","","","","","","","","","","","","",""
"","","","","","image-keyboard-response","7","86140","0.0-7.0","","2884","tutorial/task_familiarization_images/part 1/01_N160_K90_cliqueRight_question1.PNG"," ","","","","","","","","",""
"","","","","","image-keyboard-response","8","87025","0.0-8.0","","880","tutorial/task_familiarization_images/part 1/02_N160_K90_cliqueRight_question2.PNG"," ","","","","","","","","",""
"","","","","","image-keyboard-response","9","88832","0.0-9.0","","1801","tutorial/task_familiarization_images/part 1/03_N160_K90_cliqueRight_question3.PNG","arrowright","","","","","","","","",""
"","","","","","image-keyboard-response","10","89866","0.0-10.0","","1023","tutorial/task_familiarization_images/part 1/04_N160_K90_cliqueRight_solution.PNG"," ","","","","","","","","",""
"","","","","","image-keyboard-response","11","91476","0.0-11.0","","1604","tutorial/task_familiarization_images/part 1/05_N160_K65_cliqueRight_question1.PNG"," ","","","","","","","","",""
"","","","","","image-keyboard-response","12","92124","0.0-12.0","","643","tutorial/task_familiarization_images/part 1/06_N160_K65_cliqueRight_question2.PNG"," ","","","","","","","","",""
"","","","","","image-keyboard-response","13","92886","0.0-13.0","","757","tutorial/task_familiarization_images/part 1/07_N160_K65_cliqueRight_question3.PNG","arrowright","","","","","","","","",""
"","","","","","image-keyboard-response","14","93469","0.0-14.0","","577","tutorial/task_familiarization_images/part 1/08_N160_K65_cliqueRight_solution.PNG"," ","","","","","","","","",""
"","","","","","image-keyboard-response","15","93986","0.0-15.0","","513","tutorial/task_familiarization_images/part 1/09_N160_K50_cliqueLeft_question1.PNG"," ","","","","","","","","",""
"","","","","","image-keyboard-response","16","94446","0.0-16.0","","455","tutorial/task_familiarization_images/part 1/10_N160_K50_cliqueLeft_question2.PNG"," ","","","","","","","","",""
"","","","","","image-keyboard-response","17","98651","0.0-17.0","","4200","tutorial/task_familiarization_images/part 1/11_N160_K50_cliqueLeft_question3.PNG","arrowleft","","","","","","","","",""
"","","","","","image-keyboard-response","18","99787","0.0-18.0","","1131","tutorial/task_familiarization_images/part 1/12_N160_K50_cliqueLeft_solution.PNG"," ","","","","","","","","",""
"","","","","","image-keyboard-response","19","100776","0.0-19.0","","983","tutorial/task_familiarization_images/part 1/13_N160_K80_cliqueLeft_question1.PNG"," ","","","","","","","","",""
"","","","","","image-keyboard-response","20","102065","0.0-20.0","","1284","tutorial/task_familiarization_images/part 1/14_N160_K80_cliqueLeft_question2.PNG"," ","","","","","","","","",""
"","","","","","image-keyboard-response","21","103221","0.0-21.0","","1151","tutorial/task_familiarization_images/part 1/15_N160_K80_cliqueLeft_question3.PNG","arrowleft","","","","","","","","",""
"","","","","","image-keyboard-response","22","104025","0.0-22.0","","798","tutorial/task_familiarization_images/part 1/16_N160_K80_cliqueLeft_solution.PNG"," ","","","","","","","","",""
"","","","","","image-keyboard-response","23","104710","0.0-23.0","","681","tutorial/task_familiarization_images/part 1/17_N160_K40_cliqueRight_question1.PNG"," ","","","","","","","","",""
"","","","","","image-keyboard-response","24","105299","0.0-24.0","","587","tutorial/task_familiarization_images/part 1/18_N160_K40_cliqueRight_question2.PNG"," ","","","","","","","","",""
"","","","","","image-keyboard-response","25","106112","0.0-25.0","","811","tutorial/task_familiarization_images/part 1/19_N160_K40_cliqueRight_question3.PNG","arrowright","","","","","","","","",""
"","","","","","image-keyboard-response","26","106814","0.0-26.0","","697","tutorial/task_familiarization_images/part 1/20_N160_K40_cliqueRight_solution.PNG"," ","","","","","","","","",""
"","","","","","image-keyboard-response","27","107456","0.0-27.0","","637","tutorial/task_familiarization_images/part 1/21_N160_K70_cliqueLeft_question1.PNG"," ","","","","","","","","",""
"","","","","","image-keyboard-response","28","107959","0.0-28.0","","498","tutorial/task_familiarization_images/part 1/22_N160_K70_cliqueLeft_question2.PNG"," ","","","","","","","","",""
"","","","","","image-keyboard-response","29","108784","0.0-29.0","","819","tutorial/task_familiarization_images/part 1/23_N160_K70_cliqueLeft_question3.PNG","arrowleft","","","","","","","","",""
"","","","","","image-keyboard-response","30","109421","0.0-30.0","","627","tutorial/task_familiarization_images/part 1/24_N160_K70_cliqueLeft_solution.PNG"," ","","","","","","","","",""
"true","false","[]","[]","[]","preload","31","110087","0.0-31.0","","","","","","","","","","","","",""
"","","","","","image-keyboard-response","32","112670","0.0-32.0","","2579","tutorial/task_familiarization_images/part 2/01_160_80_cliqueLeft_withFeedback_1.PNG"," ","","","","","","","","",""
"","","","","","image-keyboard-response","33","113443","0.0-33.0","","769","tutorial/task_familiarization_images/part 2/02_160_80_cliqueLeft_withFeedback_1.PNG"," ","","","","","","","","",""
"","","","","","image-keyboard-response","34","115374","0.0-34.0","","1925","tutorial/task_familiarization_images/part 2/03_160_80_cliqueLeft_withFeedback_3.PNG","arrowleft","","","","","","","","",""
"","","","","","image-keyboard-response","35","116073","0.0-35.0","","692","tutorial/task_familiarization_images/part 2/04_160_80_cliqueLeft_withFeedback_correct.PNG"," ","","","","","","","","",""
"","","","","","image-keyboard-response","36","116716","0.0-36.0","","637","tutorial/task_familiarization_images/part 2/05_160_55_cliqueRight_withFeedback_1.PNG"," ","","","","","","","","",""
"","","","","","image-keyboard-response","37","118558","0.0-37.0","","1832","tutorial/task_familiarization_images/part 2/06_160_55_cliqueRight_withFeedback_2.PNG"," ","","","","","","","","",""
"","","","","","image-keyboard-response","38","119920","0.0-38.0","","1357","tutorial/task_familiarization_images/part 2/07_160_55_cliqueRight_withFeedback_3.PNG","arrowright","","","","","","","","",""
"","","","","","image-keyboard-response","39","120701","0.0-39.0","","776","tutorial/task_familiarization_images/part 2/08_160_55_cliqueRight_withFeedback_correct.PNG"," ","","","","","","","","",""
"","","","","","image-keyboard-response","40","121553","0.0-40.0","","848","tutorial/task_familiarization_images/part 2/09_160_70_cliqueLeft_withFeedback_1.PNG"," ","","","","","","","","",""
"","","","","","image-keyboard-response","41","124585","0.0-41.0","","3026","tutorial/task_familiarization_images/part 2/10_160_70_cliqueLeft_withFeedback_2.PNG"," ","","","","","","","","",""
"","","","","","image-keyboard-response","42","125720","0.0-42.0","","1131","tutorial/task_familiarization_images/part 2/11_160_70_cliqueLeft_withFeedback_3.PNG","arrowleft","","","","","","","","",""
"","","","","","image-keyboard-response","43","126404","0.0-43.0","","678","tutorial/task_familiarization_images/part 2/12_160_70_cliqueLeft_withFeedback_correct.PNG"," ","","","","","","","","",""
"","","","","","survey-html-form","44","133175","0.0-44.0","","6764","","{""gender"":""female"",""age"":""24""}","","","","","","","","",""
"","","","","","instructions","45","134417","0.0-45.0","[{""page_index"":0,""viewing_time"":1239}]","1240","","","","","","","","","","",""
"true","","","","","fullscreen","46","138293","0.0-47.0","","","","","","","","","","","","",""
"","","","","","canvas-keyboard-response","47","144347","0.0-48.0-0.0-0.0","","3039","","arrowleft","[133,621,540,962,882,591,522,73,195,847,573,122,724,786,538,119,277,762,922,281,959,960,1,848,529,535,770,459,467,533,61,147,62,445,114,843,394,665,444,353,800,226,223,245,79,566,765,624,815,787,24,524,75,41,684,341,436,255,864,776,931,344,77,638,424,966,413,465,720,63,953,21,534,408,476,994,849,888,349,340,642,306,794,719,233,547,5,64,571,678,842,191,587,923,963,608,336,575,516,998,945,795,400,819,552,905,935,706,474,270,381,478,283,588,426,657,773,600,824,50,654,799,116,869,420,900,565,33,60,929,774,820,645,352,351,711,334,20,930,904,179,299,542,761,208,260,196,461,852,769,182,96,546,727,634,980,594,817,883,672,373,631,4,851,71,145,27,23,911,263,126,702,92,861,725,723,129,389,256,164,866,113,104,825,551,655,127,123,692,254,738,34,132,826,401,694,103,811,84,398,31,859,714,592,448,680,572,933,973,916,356,273,890,708,305,822,835,397,29,146,628,228,511,219,807,891,378,868,876,170,823,215,919,735,996,460,240,695,109,985,477,635,991,346,709,691,235,166,486,200,906,332,482,274,141,56,74,241,106,838,914,124,927,984,307,258,153,704,423,339,102,932,261,749,169,777,979,846,69,833,507,757,303,184,312,951,728,627,144,94,990,294,605,491,602,803,721,91,327,81,782,44,867,886,471,652,335,790,112,758,640,453,760,898,515,313,247,117,140,173,188,39,231,981,785,187,983,921,663,710,740,839,288,936,319,577,125,768,156,967,526,764,801,160,879,365,278,105,796,11,976,596,412,830,58,193,639,746,87,875,262,131,544,804,7,192,171,83,201,165,609,589,828,730,977,612,206,308,85,897,143,506,521,579,793,172,372,618,289,205,970,137,161,330,280,713,57,97,737,490,649,531,80,360,26,802,30,567,407,221,896,211,163,419,450,939,375,210,907,513,969,197,275,367,664,741,304,68,558,466,650,688,707,862,176,442,309,414,674,681,142,485,290,302,810,562,568,369,831,323,209,502,957,458,155,427,601,874,745,685,88,279,118,559,669,454,28,329,519,644,222,82,500,987,722,986,527,410,520,243,314,870,452,90,715,780,107,382,183,246,915,501,597,230,324,269,633,885,671,972,675,968,778,689,989,405,493,563,857,15,252,944,545,286,494,296,463,347,697,234,792,194,582,54,739,227,924,470,190,55,860,473,22,606,607,284,297,484,504,451,475,292,8,523,76,301,733,86,940,643,895,149,514,403,388,686,100,72,731,464,354,696,667,751,625,363,903,438,928,510,530,872,392,101,884,3,798,136,488,893,958,462,32,593,877,320,772,417,805,317,387,455,13,449,358,395,580,377,971,251,121,701,508,364,326,788,198,370,98,53,248,0,653,180,130,753,834,242,37,619,581,917,865,789,267,439,620,583,480,517,390,629,584,752,718,111,806,2,150,712,52,36,946,162,16,264,623,45,659,909,134,747,920,676,487,781,357,997,386,268,850,47,949,604,213,992,988,139,599,48,236,858,285,841,17,65,322,941,829,108,743,345,318,203,548,943,212,812,99,690,362,736,380,899,499,744,396,287,666,224,128,384,157,95,832,391,673,214,536,771,168,481,379,616,754,660,421,617,783,699,569,556,887,539,873,181,586,46,999,220,750,167,947,110,554,469,641,934,158,871,311,658,411,732,844,590,809,154,553,813,863,682,910,42,70,818,348,598,705,948,174,310,229,564,549,797,135,840,331,693,178,472,250,541,942,457,956,428,595,93,912,422,982,894,767,298,218,677,416,489,926,814,440,578,570,855,950,808,40,282,18,775,59,238,185,148,918,974,955,337,468,272,393,151,816,766,880,291,437,253,12,881,661,479,961,259,610,837,853,636,446,159,216,433,518,315,748,647,726,207,271,441,975,115,239,878,343,434,632,603,175,779,225,366,371,561,177,763,138,51,791,854,385,836,237,498,651,333,447,338,630,889,784,759,361,576,611,821,755,703,679,152,845,429,202,995,555,717,376,19,827,249,668,483,892,10,512,14,550,978,66,495,525,399,265,257,300,78,965,404,435,938,585,9,528,913,954,614,560,509,25,402,443,204,189,626,925,687,89,266,383,902,67,670,232,276,993,613,430,532,656,355,537,456,742,293,908,937,503,418,431,756,186,543,120,952,964,43,432,856,199,716,350,368,38,574,496,406,35,6,648,683,492,217,321,637,374,359,415,316,342,901,328,646,557,700,295,505,325,698,662,729,734,49,497,615,622,244,409,425]","arrowleft","","true","0","0","300","1000","[""0015_N1000_K0300_CLIQUE"",""0095_N1000_K0300_NOCLIQUE""]"
"","","","","","audio-keyboard-response","48","147130","0.0-48.0-0.0-1.0","","null","audio_feedback/right/coin01.mp3","null","","","","","0","0","300","1000","[""0015_N1000_K0300_CLIQUE"",""0095_N1000_K0300_NOCLIQUE""]"
"","","","","","canvas-keyboard-response","49","154724","0.0-49.0-0.0-0.0","","4222","","arrowleft","[396,298,816,131,413,604,89,671,119,59,457,945,1,749,324,845,760,817,998,355,424,293,581,599,553,981,880,972,470,313,489,16,369,935,57,393,283,254,340,533,501,960,312,513,281,743,980,823,129,32,840,30,382,936,385,687,347,973,815,160,913,487,567,732,804,737,536,542,392,170,139,328,465,984,708,740,167,381,249,919,756,534,412,523,296,498,832,103,822,990,179,544,495,76,401,707,205,954,118,262,446,505,953,218,844,23,202,342,430,907,227,781,101,336,916,325,84,55,255,652,151,149,499,183,145,574,408,98,29,667,256,798,39,812,853,508,67,146,266,964,831,814,426,420,359,184,301,577,411,677,17,3,886,834,777,200,280,638,86,414,841,368,220,207,203,502,73,192,182,403,387,897,770,488,88,443,358,453,759,572,649,484,819,243,640,492,345,51,516,267,598,585,366,930,800,734,468,955,114,38,397,263,239,865,573,81,214,276,943,48,395,398,512,839,952,565,918,704,297,378,138,458,168,294,44,861,213,370,986,941,846,329,549,747,983,8,634,308,896,123,538,309,435,208,251,405,70,592,628,231,68,794,902,799,233,974,656,110,882,776,635,711,790,350,148,102,211,417,769,993,556,876,389,806,422,344,768,128,87,169,2,995,421,867,519,13,272,849,959,322,989,548,562,543,691,372,62,310,752,490,875,782,190,320,655,733,636,795,228,140,343,559,354,843,307,982,241,261,537,825,674,418,969,338,185,223,273,701,680,419,269,194,14,895,827,485,659,889,379,971,802,682,240,259,353,591,264,188,49,773,306,694,868,147,648,836,116,527,926,623,319,928,999,433,479,612,525,716,975,515,476,234,27,539,99,105,460,630,500,25,579,552,384,894,613,600,594,590,810,270,107,210,36,409,212,877,74,692,910,189,568,662,750,331,164,471,582,639,166,247,230,748,992,583,388,746,627,683,611,713,710,873,615,679,109,229,934,42,226,580,614,997,650,428,120,475,95,754,869,20,860,921,807,642,681,575,535,150,947,784,938,232,91,530,914,178,654,238,19,887,571,685,786,18,587,22,274,632,454,21,596,689,903,944,570,462,729,337,291,199,899,503,547,111,524,718,175,271,658,15,757,46,801,375,4,5,774,172,365,142,783,483,299,767,346,180,670,459,383,143,722,268,215,321,448,857,892,675,217,362,970,250,915,731,65,842,141,63,643,463,78,609,763,854,610,761,703,438,673,978,863,117,480,377,482,550,400,851,156,755,518,404,531,811,399,295,511,874,316,425,771,464,856,758,608,965,451,951,361,6,97,672,664,620,597,121,828,917,929,186,171,40,386,257,477,351,788,588,787,646,216,979,115,942,985,558,181,712,595,258,176,724,546,622,616,130,772,923,631,136,838,317,908,127,668,603,540,879,647,778,33,394,304,69,196,742,720,219,410,466,90,949,126,303,356,71,688,826,449,686,493,866,878,415,330,439,962,833,589,657,805,137,35,957,334,626,669,605,751,741,723,195,678,695,177,96,197,237,440,406,92,80,367,284,56,47,260,557,948,933,586,326,517,75,666,924,904,925,506,246,360,135,721,847,373,122,77,157,165,427,932,665,94,9,676,522,112,152,859,26,509,714,803,54,937,491,883,762,132,341,764,434,555,528,279,61,607,796,717,162,442,725,526,242,950,236,7,792,469,977,235,45,198,545,578,852,335,133,922,204,173,789,455,224,976,780,174,50,858,991,339,124,621,275,60,53,727,738,888,939,821,265,753,745,83,521,651,593,450,830,34,104,829,809,245,191,705,735,663,144,467,478,560,900,431,885,715,905,906,253,510,244,637,946,766,318,702,286,155,850,225,302,684,0,564,576,988,690,848,79,292,744,864,958,154,898,41,785,72,221,290,305,625,719,429,529,698,252,660,282,606,641,618,730,423,968,507,376,706,967,497,961,93,791,481,653,893,862,808,554,566,106,891,617,100,206,108,996,31,629,551,12,644,872,52,927,765,158,494,82,473,113,520,444,779,645,163,818,994,813,661,287,125,633,43,248,441,726,445,153,209,193,793,315,452,890,700,496,601,532,624,966,871,278,311,288,486,504,323,333,739,728,472,28,940,289,709,602,332,561,797,277,364,855,436,931,363,884,161,407,920,461,10,327,987,474,371,881,159,697,391,775,85,563,201,541,699,956,911,736,187,820,870,58,380,963,222,64,374,357,696,584,835,514,314,901,437,569,134,348,390,416,37,285,824,837,693,619,66,24,447,402,300,432,349,909,912,456,352,11]","arrowleft","","true","0","1","300","1000","[""0055_N1000_K0300_CLIQUE"",""0070_N1000_K0300_NOCLIQUE""]"
"","","","","","audio-keyboard-response","50","155748","0.0-49.0-0.0-1.0","","null","audio_feedback/right/coin01.mp3","null","","","","","0","1","300","1000","[""0055_N1000_K0300_CLIQUE"",""0070_N1000_K0300_NOCLIQUE""]"
"","","","","","canvas-keyboard-response","51","160339","0.0-50.0-0.0-0.0","","1237","","arrowright","[450,617,60,738,838,280,961,945,405,124,827,148,695,84,44,936,109,413,6,535,412,438,238,787,509,45,246,108,733,948,214,963,270,558,729,49,334,857,815,107,666,511,594,835,285,65,721,725,567,547,131,151,732,728,56,688,807,353,591,947,294,699,33,470,672,822,803,281,941,70,40,12,964,490,48,93,340,931,409,997,14,427,329,301,202,879,899,697,446,253,118,930,645,826,898,636,585,660,739,926,909,343,377,824,387,872,97,514,191,360,774,593,247,778,517,218,61,584,432,654,385,375,268,784,55,747,972,351,339,696,32,257,946,286,159,147,683,762,290,546,886,763,500,426,305,950,714,979,330,900,356,478,474,454,231,157,820,180,777,348,623,227,524,129,752,708,111,364,750,542,772,59,349,933,825,937,564,46,614,420,34,837,722,640,637,647,47,864,486,966,449,265,970,502,869,186,568,374,534,745,951,736,273,573,792,715,476,913,322,991,644,2,429,378,106,310,859,661,632,894,691,658,264,86,987,304,313,698,989,29,485,296,81,613,702,944,710,35,226,726,112,158,638,345,630,142,99,705,200,845,731,83,962,627,435,136,225,372,551,402,178,452,152,370,676,183,530,167,590,418,597,812,830,758,618,292,217,437,100,559,453,483,355,91,493,921,814,690,990,499,25,984,914,26,469,891,817,723,415,416,168,24,169,475,942,662,804,15,67,659,730,802,958,495,347,447,441,929,959,626,622,85,522,836,707,717,307,384,881,940,540,973,132,741,141,657,769,553,932,686,154,365,566,829,137,363,871,839,206,543,58,751,643,576,52,346,423,504,267,160,110,211,27,689,957,421,724,126,996,72,138,928,95,74,472,598,801,473,260,295,734,193,50,925,123,219,443,651,600,308,496,208,967,635,680,406,319,952,491,312,545,145,711,889,161,466,209,605,744,675,847,456,442,716,507,362,254,283,184,587,863,306,569,414,648,764,333,616,17,133,197,140,842,765,501,357,403,880,965,712,155,577,895,904,23,704,977,318,625,164,80,244,770,36,179,189,341,371,393,840,43,224,556,701,918,368,938,28,477,103,628,853,809,37,233,906,565,411,92,379,549,185,667,525,266,674,531,761,706,670,359,954,749,768,96,797,788,388,606,923,709,718,62,451,172,571,766,196,870,610,143,541,805,358,75,153,314,497,163,250,533,139,465,101,785,882,855,269,799,251,293,599,3,552,796,471,968,309,338,781,230,620,652,401,397,317,572,902,39,934,523,581,117,756,210,494,866,53,455,327,915,82,195,621,848,277,390,130,207,975,619,303,249,671,51,42,515,239,560,503,256,860,985,779,276,89,232,461,324,586,20,960,354,727,668,609,380,663,527,434,205,865,624,834,263,907,563,924,893,235,575,798,479,897,115,41,687,919,165,641,861,79,529,735,905,700,783,408,458,713,677,234,759,760,665,383,174,856,119,16,287,771,920,394,927,602,203,720,484,289,892,612,782,896,114,331,21,873,510,828,335,615,241,604,198,440,910,794,194,800,229,176,302,608,395,128,22,223,719,854,592,851,995,68,876,981,396,425,428,282,457,692,221,299,13,810,544,878,98,916,908,10,284,519,113,134,862,912,492,192,790,382,678,867,887,271,344,754,173,262,833,297,94,816,849,922,684,87,177,596,650,78,917,808,850,170,448,694,753,337,980,199,400,512,776,562,71,481,66,646,482,883,988,999,190,156,526,656,220,274,819,328,786,255,57,607,212,978,791,201,464,54,969,588,445,789,888,685,846,7,875,884,144,376,361,228,213,868,315,150,811,578,463,634,579,679,436,187,392,444,182,516,992,682,258,832,874,76,73,8,487,116,350,489,63,422,298,890,104,236,983,369,242,162,903,462,775,994,537,222,631,505,5,367,373,38,366,459,69,342,146,993,321,291,642,245,386,237,381,278,673,88,506,430,538,743,120,171,601,974,460,539,4,149,806,1,520,279,311,332,518,288,550,831,399,521,325,488,122,90,19,557,513,417,953,248,583,852,603,181,653,121,976,821,31,252,681,649,468,0,320,275,737,467,742,780,135,188,703,300,216,498,655,740,175,755,536,748,424,767,589,243,259,611,773,629,439,528,105,102,818,389,323,935,795,574,669,793,813,204,757,410,955,939,554,956,431,595,885,18,693,582,125,240,971,561,398,407,352,336,316,419,633,998,532,877,841,391,943,911,433,77,982,64,508,404,580,986,555,843,215,480,127,166,901,823,844,11,261,858,9,326,664,949,639,570,746,272,30,548]","arrowright","","true","0","2","267","1000","[""0099_N1000_K0267_NOCLIQUE"",""0020_N1000_K0267_CLIQUE""]"
"","","","","","audio-keyboard-response","52","161367","0.0-50.0-0.0-1.0","","null","audio_feedback/right/coin01.mp3","null","","","","","0","2","267","1000","[""0099_N1000_K0267_NOCLIQUE"",""0020_N1000_K0267_CLIQUE""]"
"","","","","","canvas-keyboard-response","53","165624","0.0-51.0-0.0-0.0","","885","","arrowright","[833,848,331,561,730,724,462,79,306,600,907,963,336,998,946,583,53,781,711,274,939,692,212,204,874,898,311,968,768,406,326,226,356,461,147,365,91,797,540,187,227,923,720,693,808,928,44,637,342,46,820,35,592,691,32,850,410,977,520,189,763,66,257,177,82,47,753,572,38,294,466,879,792,470,714,126,743,671,863,443,823,284,557,368,995,485,157,503,20,885,676,64,776,708,117,22,111,220,974,747,52,399,21,793,214,662,246,451,632,170,548,524,268,408,518,231,347,878,422,945,723,677,222,986,705,430,758,752,897,836,90,159,914,775,194,761,925,205,296,190,137,186,389,932,712,131,290,545,279,771,888,143,622,550,287,984,824,118,930,742,179,867,218,85,744,195,397,475,852,861,376,913,322,760,334,247,122,61,427,501,386,729,703,970,821,102,267,207,515,42,680,109,394,922,906,972,807,722,614,690,418,828,849,912,721,544,556,546,173,14,384,108,213,238,468,956,309,908,255,541,446,152,774,682,910,608,950,83,447,902,975,591,696,201,350,814,482,180,8,636,199,221,735,176,641,569,911,900,361,534,127,647,508,36,618,40,135,141,570,245,529,678,695,523,282,479,653,449,832,333,258,574,234,855,539,87,209,715,629,96,464,338,357,713,148,28,275,155,841,419,30,700,200,369,988,86,960,564,375,931,895,305,456,253,60,437,103,295,349,382,175,659,373,390,372,409,174,725,162,74,273,286,842,756,510,92,315,859,248,851,48,917,542,803,13,817,827,554,858,579,660,492,434,905,381,810,685,415,782,252,650,804,164,701,710,439,26,370,644,224,441,748,371,679,458,951,413,830,73,121,772,500,172,683,182,535,321,272,733,325,115,581,675,34,533,555,398,543,366,93,964,317,657,985,219,531,938,392,12,890,387,277,718,402,837,522,948,262,843,646,165,232,250,264,528,297,969,489,645,367,751,670,532,994,181,642,400,856,871,491,530,980,959,571,395,139,59,363,904,576,280,560,877,783,163,89,764,798,412,426,217,502,495,628,996,936,62,416,265,43,320,992,847,655,799,9,236,242,358,23,428,809,745,76,516,240,840,161,37,383,151,460,504,420,235,210,924,899,509,107,865,979,499,990,638,759,547,138,5,241,738,669,10,417,380,687,130,673,330,854,818,664,605,887,517,49,551,844,266,826,480,901,45,396,80,453,805,864,658,24,599,405,56,604,519,610,385,606,51,474,575,144,615,791,954,918,251,403,84,770,831,778,617,39,58,225,590,128,360,435,598,168,635,506,706,407,505,582,880,261,99,263,612,893,337,124,873,919,192,672,299,862,511,993,652,815,989,359,944,256,668,892,414,341,806,17,29,327,318,197,872,346,444,289,726,167,584,293,684,813,166,639,448,123,339,558,328,784,965,789,886,961,0,697,106,18,573,310,811,839,860,484,765,150,228,156,869,69,565,259,613,100,254,982,586,142,97,146,307,438,750,643,957,75,429,223,244,471,378,260,404,757,527,421,577,196,728,440,734,611,976,619,846,183,445,473,319,478,483,640,68,211,666,665,788,191,802,838,105,981,787,497,351,304,966,308,424,526,158,927,303,198,442,973,104,727,589,699,834,603,171,559,634,942,933,952,129,739,301,119,436,934,459,588,537,431,978,883,54,393,281,829,633,433,486,401,335,112,423,580,65,388,276,926,819,149,377,689,983,624,553,920,999,70,300,962,549,780,55,566,67,465,203,7,348,686,193,81,769,903,866,78,292,626,216,425,578,889,344,302,353,609,362,746,876,230,801,881,476,354,704,455,316,947,185,649,891,585,921,822,538,98,597,627,698,332,971,323,215,773,741,552,648,270,1,702,567,884,206,835,909,19,41,777,27,188,125,4,616,816,113,663,114,488,525,514,870,379,740,184,857,709,896,467,661,536,278,271,563,298,894,364,825,494,493,72,239,63,154,623,940,779,630,57,313,987,237,949,594,766,953,454,145,937,875,101,77,754,587,955,391,411,116,796,512,472,136,762,786,355,487,450,25,15,853,507,595,11,732,958,651,882,654,233,291,941,601,607,345,269,178,755,6,31,562,490,991,997,457,631,943,208,33,283,324,169,312,731,915,3,229,717,16,845,602,285,496,249,967,153,596,521,568,329,800,340,110,120,736,785,694,352,620,794,374,719,812,343,749,202,160,2,314,716,50,935,469,477,498,707,681,94,767,513,868,71,795,432,88,929,667,593,133,288,452,625,463,132,656,243,134,95,140,674,916,790,621,737,688,481]","arrowright","","true","0","3","267","1000","[""0033_N1000_K0267_NOCLIQUE"",""0046_N1000_K0267_CLIQUE""]"
"","","","","","audio-keyboard-response","54","166647","0.0-51.0-0.0-1.0","","null","audio_feedback/right/coin01.mp3","null","","","","","0","3","267","1000","[""0033_N1000_K0267_NOCLIQUE"",""0046_N1000_K0267_CLIQUE""]"
"","","","","","canvas-keyboard-response","55","170810","0.0-52.0-0.0-0.0","","1071","","arrowleft","[407,755,675,249,665,334,262,795,379,858,411,338,913,607,65,530,980,695,912,0,430,954,114,122,739,736,326,619,523,702,172,998,306,285,793,985,337,770,887,290,992,381,277,278,880,669,525,552,138,931,526,610,425,325,258,664,807,806,210,429,291,180,358,377,454,932,655,50,293,634,762,398,162,533,918,942,336,611,496,49,176,146,44,586,131,354,809,747,888,827,410,316,1,839,628,163,98,279,468,251,797,41,945,125,179,776,399,758,796,551,740,627,597,235,556,42,363,317,625,156,780,343,498,672,355,989,448,436,167,419,909,948,66,82,3,39,970,5,265,674,216,332,400,119,631,97,88,849,652,600,892,340,604,715,732,512,638,462,934,616,955,442,538,485,721,869,26,643,626,282,745,676,936,524,294,622,175,902,560,357,939,798,541,632,624,545,999,181,449,76,573,384,378,787,924,300,385,366,390,921,193,907,620,15,154,349,943,492,466,170,645,70,148,86,37,615,829,78,260,811,310,501,749,245,800,322,582,19,93,882,521,744,881,259,463,861,709,415,727,374,171,778,217,327,71,588,768,153,510,301,977,14,658,682,697,905,767,263,408,208,759,979,986,488,772,814,395,633,392,802,267,48,984,183,910,832,312,895,642,506,713,413,751,757,889,961,27,972,926,127,189,211,789,92,847,737,198,962,987,857,139,315,104,636,950,914,734,424,690,666,17,227,475,329,686,997,254,717,311,256,490,450,319,232,137,791,608,964,703,583,228,503,2,239,805,108,784,11,396,562,8,99,286,60,304,700,710,229,497,223,298,753,812,547,257,941,816,981,641,750,242,555,21,64,898,996,957,147,670,330,95,333,742,856,782,978,109,83,295,67,328,58,341,875,351,303,368,563,111,133,190,993,735,121,916,16,640,204,446,215,923,480,141,677,792,922,375,418,594,441,169,393,790,579,276,483,206,240,460,581,591,663,331,348,824,10,308,803,470,112,43,908,352,202,956,722,453,781,132,318,288,595,833,75,769,128,867,231,559,320,983,439,79,705,688,302,409,820,815,716,45,173,261,252,84,105,661,976,219,866,472,230,971,725,115,389,404,963,825,47,698,200,244,100,237,56,507,572,57,271,159,723,428,765,826,339,280,599,158,221,773,273,234,373,493,639,433,671,33,478,23,571,946,994,527,85,24,89,693,821,748,911,928,344,461,937,949,660,884,837,906,136,207,565,865,864,558,879,504,401,509,323,481,683,250,117,724,585,268,68,59,186,893,402,435,81,635,489,933,243,548,386,455,269,126,854,275,874,129,704,188,518,967,149,605,421,537,236,287,145,901,729,623,142,577,484,225,391,270,165,517,574,106,205,719,763,438,951,353,321,975,598,520,55,707,51,502,701,382,542,494,554,403,7,938,534,116,118,836,612,746,629,712,247,714,427,730,834,36,380,544,982,224,685,644,168,575,564,775,144,618,900,508,647,134,650,431,903,359,883,218,536,491,499,553,196,160,760,646,966,345,550,18,452,266,371,152,107,220,54,872,960,283,464,808,456,434,233,818,940,890,69,528,120,22,447,761,580,467,656,694,20,885,743,80,630,255,281,529,241,222,785,164,843,830,417,621,486,863,101,307,667,113,406,103,842,592,783,873,135,376,557,819,845,549,944,958,920,568,831,445,130,990,738,30,161,569,40,505,397,513,886,891,90,752,822,969,515,53,855,74,292,799,383,699,602,364,4,859,309,28,684,851,756,394,692,370,935,166,457,140,844,720,535,567,422,878,896,919,63,444,846,350,952,143,487,810,150,324,94,73,151,459,794,853,681,519,213,25,474,973,199,711,596,904,929,917,706,32,648,473,779,443,835,212,305,469,500,248,264,817,606,191,361,46,465,584,988,482,335,657,209,651,609,13,587,637,877,476,718,726,356,561,238,876,786,968,728,91,613,313,426,678,342,965,838,862,823,12,531,689,511,850,764,365,296,87,852,458,405,601,194,522,387,566,479,29,38,471,6,649,195,346,192,420,603,871,52,369,897,654,590,314,771,774,589,123,451,539,653,514,177,570,203,182,437,532,860,813,9,995,423,184,991,959,766,284,673,440,680,617,696,178,953,841,708,543,731,62,372,614,578,733,197,72,414,226,201,593,915,576,35,804,828,77,253,848,930,801,974,416,274,360,362,31,691,925,777,297,899,668,110,540,299,870,185,662,947,546,927,61,687,495,272,412,388,34,840,516,289,894,174,788,432,477,754,246,367,102,347,187,155,157,741,868,659,679,96,214,124]","arrowleft","","true","0","4","233","1000","[""0041_N1000_K0233_CLIQUE"",""0027_N1000_K0233_NOCLIQUE""]"
"","","","","","audio-keyboard-response","56","171827","0.0-52.0-0.0-1.0","","null","audio_feedback/right/coin01.mp3","null","","","","","0","4","233","1000","[""0041_N1000_K0233_CLIQUE"",""0027_N1000_K0233_NOCLIQUE""]"
"","","","","","canvas-keyboard-response","57","175945","0.0-53.0-0.0-0.0","","834","","arrowleft","[583,911,23,47,875,467,788,204,752,154,996,694,841,206,634,461,22,909,297,881,897,158,686,327,56,184,935,237,778,740,871,904,704,688,766,168,313,152,745,163,916,83,105,364,756,92,71,159,491,96,876,466,730,212,854,64,810,873,747,878,820,851,953,99,692,954,979,834,619,509,717,29,853,685,462,977,283,106,839,759,413,351,34,239,447,852,104,966,681,783,148,332,136,573,246,146,805,924,972,305,176,887,828,800,792,813,706,428,566,397,761,982,259,585,294,314,797,699,963,406,469,594,373,530,959,960,624,655,14,769,3,656,463,76,544,613,546,819,643,247,209,258,267,127,912,370,611,928,992,503,774,895,664,457,971,830,18,399,316,400,66,601,564,48,974,328,476,380,890,329,261,877,408,236,847,918,741,988,486,578,110,789,286,527,773,501,990,132,714,125,724,718,785,568,562,394,684,801,53,295,42,403,422,108,582,69,137,500,617,405,905,231,62,529,269,1,194,932,434,192,285,621,250,825,616,798,930,207,721,679,156,161,85,702,693,89,651,984,388,738,545,840,210,980,254,187,450,969,919,128,430,712,368,178,107,77,437,976,577,477,73,167,262,221,922,517,404,389,661,143,334,199,208,6,75,68,122,482,126,595,50,725,160,272,222,363,663,274,814,948,452,998,795,489,270,326,846,870,645,26,352,654,844,962,433,164,59,444,115,937,36,302,676,865,768,701,153,142,720,637,536,978,729,292,220,986,323,419,552,303,754,649,926,933,318,629,732,57,591,264,784,618,742,639,257,16,296,957,635,551,203,485,567,607,346,165,502,411,80,843,429,35,690,674,497,525,418,86,480,899,772,190,307,392,753,311,347,131,308,260,309,271,446,968,439,431,443,691,166,197,927,256,713,722,372,837,991,453,325,229,288,602,659,91,8,908,514,646,603,157,632,858,737,398,593,955,612,673,683,28,541,382,494,472,944,606,78,290,100,412,119,650,733,150,304,432,522,378,97,442,499,33,278,555,149,175,46,941,540,279,883,942,580,117,354,349,191,913,703,608,833,17,627,549,631,381,868,243,827,337,459,997,743,179,658,572,848,487,395,478,700,464,214,975,109,999,511,862,344,4,202,668,842,19,625,823,70,755,449,765,850,232,885,123,205,588,734,638,468,353,707,914,598,245,967,548,652,888,705,55,169,387,20,116,640,287,822,63,739,609,233,748,189,711,861,177,211,441,811,533,24,357,728,228,379,456,312,360,880,746,925,362,872,920,361,2,483,213,584,736,225,808,506,87,198,995,829,751,98,535,460,604,43,317,79,118,864,581,88,866,101,949,74,273,867,716,72,111,58,526,15,589,61,893,807,614,366,644,365,251,744,994,939,182,570,440,610,815,528,0,641,951,438,557,665,845,495,407,518,657,348,67,622,750,550,952,923,964,130,605,492,647,806,60,201,599,879,507,496,356,409,849,32,600,135,293,10,559,401,630,129,915,587,554,180,860,836,523,882,248,794,961,516,384,965,377,796,25,342,181,448,21,799,113,240,330,505,224,726,556,484,831,708,155,322,358,51,455,985,636,938,345,898,280,435,672,324,145,335,987,215,970,355,284,475,758,648,670,667,917,892,943,11,9,802,902,791,37,402,488,7,289,82,102,52,513,268,252,144,242,537,183,27,508,859,519,134,451,763,147,275,874,569,217,989,474,615,31,553,200,93,597,818,266,263,13,340,196,539,542,445,715,420,727,174,906,54,671,249,934,120,735,424,282,195,696,512,369,680,950,777,112,787,30,299,298,896,371,894,626,945,310,393,929,531,767,561,524,39,709,678,235,579,940,592,675,900,749,471,907,41,780,786,481,151,133,391,162,414,981,931,350,427,490,821,560,103,238,662,838,575,793,44,760,682,770,336,45,333,817,331,886,757,565,219,185,172,359,790,973,425,689,139,95,277,426,454,473,660,653,265,538,687,731,470,216,188,436,669,695,84,891,193,958,171,498,547,341,869,804,291,586,301,884,374,947,903,465,710,677,244,633,218,771,421,620,376,534,38,521,253,936,571,515,339,227,367,816,520,723,809,281,121,719,415,558,5,276,114,921,563,956,319,590,855,320,628,812,315,762,173,396,124,666,230,416,140,390,576,863,623,543,889,776,781,857,90,698,510,138,81,306,170,824,946,504,697,375,803,835,782,255,458,410,574,764,901,49,596,300,223,479,338,910,532,779,993,186,385,141,775,417,234,226,94,826,856,832,642,40,241,321,386,423,12,983,493,343,65,383]","arrowleft","","true","0","5","233","1000","[""0079_N1000_K0233_CLIQUE"",""0010_N1000_K0233_NOCLIQUE""]"
"","","","","","audio-keyboard-response","58","176968","0.0-53.0-0.0-1.0","","null","audio_feedback/right/coin01.mp3","null","","","","","0","5","233","1000","[""0079_N1000_K0233_CLIQUE"",""0010_N1000_K0233_NOCLIQUE""]"
"","","","","","canvas-keyboard-response","59","181254","0.0-54.0-0.0-0.0","","955","","arrowright","[719,703,750,504,746,826,197,868,475,932,289,850,462,714,162,492,454,188,368,418,146,334,315,615,925,652,358,518,898,513,347,41,352,971,338,85,929,583,614,944,357,628,173,742,744,259,837,759,767,684,354,621,511,363,141,665,458,906,889,89,833,678,935,536,680,223,249,902,10,870,579,138,322,914,445,939,801,873,12,491,602,132,318,619,569,371,578,827,625,705,216,226,869,729,824,67,396,213,394,991,897,980,849,277,636,329,181,429,501,191,600,158,128,505,281,233,563,564,409,348,426,736,808,46,620,667,520,834,893,360,987,799,942,476,449,168,346,385,576,267,214,377,480,866,137,416,529,883,997,908,938,490,784,145,378,785,698,95,305,860,310,639,221,918,996,779,327,320,456,947,389,940,928,637,668,965,862,968,193,390,446,483,408,979,878,496,572,441,859,993,411,559,139,522,624,641,560,691,118,508,495,626,814,372,92,381,423,754,682,840,215,805,498,592,598,126,65,901,774,961,670,144,948,727,816,33,324,127,283,81,730,404,375,473,616,909,96,406,587,753,537,739,309,151,543,960,436,656,384,921,573,937,405,1,663,888,397,487,38,875,733,972,273,743,882,64,251,108,399,287,858,80,150,107,655,292,896,633,831,635,428,166,527,88,471,975,689,819,894,73,716,225,190,811,349,424,101,764,630,699,748,361,549,66,342,844,437,263,130,218,383,715,156,964,843,431,771,186,577,722,155,199,311,677,777,817,790,539,617,74,674,570,6,586,159,44,517,783,247,86,331,945,463,16,313,298,400,339,892,662,174,303,84,962,240,871,558,111,976,787,524,250,853,521,175,440,854,711,469,268,87,673,257,20,755,415,852,967,5,758,867,575,494,806,857,803,999,93,661,42,265,707,530,332,992,224,638,78,949,401,488,546,910,708,210,301,307,542,735,417,22,474,798,890,55,591,478,745,485,958,915,631,336,791,7,696,472,109,430,551,43,969,690,184,574,650,29,234,710,856,304,507,255,291,49,179,970,482,13,196,204,516,131,433,295,110,467,317,725,4,113,608,366,648,343,21,809,994,258,53,36,687,605,2,692,904,601,556,946,756,8,900,261,235,290,789,919,253,907,629,815,741,59,681,23,503,632,553,864,676,531,392,306,842,425,604,721,256,880,167,679,571,245,40,112,772,541,519,163,269,451,845,83,797,533,644,995,874,391,818,183,782,300,161,421,420,585,382,588,435,142,398,640,116,438,747,589,102,723,876,419,738,133,899,567,222,187,863,795,752,956,594,230,275,660,178,414,762,79,211,526,100,410,618,580,881,544,685,26,493,838,351,122,25,373,19,540,403,380,982,271,672,835,379,231,760,525,645,481,314,94,653,208,983,455,953,597,861,61,887,593,125,337,241,51,990,47,728,599,804,780,37,439,75,98,943,299,528,955,18,512,884,720,966,11,135,697,718,308,58,848,464,388,321,274,731,207,284,340,985,796,781,288,923,794,237,500,172,548,442,459,734,977,466,149,712,272,851,62,740,686,807,164,582,623,957,973,607,238,669,555,499,916,757,792,709,143,724,770,260,732,664,140,364,457,879,963,345,895,855,165,737,606,393,114,402,986,276,989,839,115,793,297,584,177,998,769,48,506,170,693,326,244,659,905,104,489,148,45,152,50,532,206,497,106,822,176,846,702,877,561,57,99,642,613,988,952,706,205,160,154,717,565,924,69,232,266,198,217,185,129,97,34,694,136,293,323,713,627,195,634,468,535,763,427,27,413,841,912,917,31,726,279,486,3,658,465,90,775,243,885,328,355,220,362,54,91,120,666,121,610,595,647,434,812,514,927,68,820,412,950,264,203,76,934,813,189,180,209,590,821,509,147,432,671,515,954,920,192,28,285,959,387,836,169,611,683,654,294,675,847,262,936,330,829,751,9,443,369,32,700,333,15,643,242,534,765,978,554,562,452,538,341,830,450,63,157,768,688,52,695,523,72,14,776,651,335,981,823,229,886,545,974,103,236,951,891,70,761,922,246,374,60,202,810,365,422,865,502,280,270,35,547,123,296,24,557,171,353,319,447,926,453,749,941,386,119,444,802,568,460,649,395,212,228,828,194,510,933,0,646,479,17,201,704,800,913,239,566,931,356,657,30,766,117,278,984,872,701,56,448,622,581,282,124,248,470,903,134,911,788,77,200,316,252,552,596,461,786,302,350,778,825,312,71,407,550,832,367,370,359,376,603,773,254,344,39,484,930,609,227,286,82,612,105,325,219,153,477,182]","arrowright","","true","0","6","217","1000","[""0045_N1000_K0217_NOCLIQUE"",""0065_N1000_K0217_CLIQUE""]"
"","","","","","audio-keyboard-response","60","182286","0.0-54.0-0.0-1.0","","null","audio_feedback/right/coin01.mp3","null","","","","","0","6","217","1000","[""0045_N1000_K0217_NOCLIQUE"",""0065_N1000_K0217_CLIQUE""]"
"","","","","","canvas-keyboard-response","61","186577","0.0-55.0-0.0-0.0","","1072","","arrowleft","[6,315,269,252,419,249,751,466,70,116,416,801,375,382,979,216,616,974,635,833,150,11,107,393,278,91,491,737,819,182,260,884,311,258,733,423,520,680,22,745,557,233,196,33,508,929,852,499,674,977,541,791,297,775,667,967,135,126,120,429,799,99,861,515,129,933,60,741,323,151,807,437,81,305,919,646,430,911,132,761,274,203,331,808,903,760,427,530,413,388,968,187,373,632,454,478,960,555,394,450,558,939,12,794,762,889,994,878,486,502,924,952,868,121,270,965,332,4,644,526,593,164,689,95,758,52,533,36,875,206,722,23,871,673,337,577,439,782,277,627,262,725,837,435,471,294,308,329,608,325,676,20,358,723,292,404,296,818,976,57,391,845,326,351,505,907,420,246,235,35,472,822,537,327,828,123,220,607,93,117,981,946,611,877,198,299,218,997,772,115,959,527,695,191,809,307,480,708,790,783,58,13,159,700,2,230,788,650,268,653,750,742,797,949,379,367,39,773,148,754,595,190,384,589,222,928,313,7,731,161,139,144,105,490,705,987,841,8,114,531,341,975,357,363,736,336,458,704,361,147,433,937,767,26,614,194,487,15,146,17,789,594,232,350,3,583,945,763,55,638,457,34,254,38,935,212,78,544,942,702,474,46,825,1,119,648,826,259,691,542,345,565,247,328,166,897,346,501,854,380,516,213,920,728,173,738,136,863,694,352,709,406,102,859,953,906,687,381,549,529,43,349,189,587,963,24,610,764,941,856,241,56,519,811,787,511,873,792,918,874,759,862,411,66,882,707,936,747,988,993,898,84,661,823,539,621,348,864,572,817,45,108,590,612,76,455,122,578,86,730,983,860,180,686,966,880,171,494,54,428,451,883,820,473,101,320,753,275,552,364,356,932,513,211,865,675,319,288,554,716,592,229,378,514,61,729,786,424,642,900,281,318,239,606,879,573,353,972,460,697,493,10,830,157,140,657,447,32,412,100,205,158,548,711,407,710,740,266,523,204,51,208,943,576,887,368,444,986,699,82,48,221,560,227,688,306,721,209,538,551,620,98,896,183,755,756,390,651,744,895,396,365,574,201,893,79,359,452,714,718,604,671,663,915,624,582,257,559,510,434,234,768,172,930,97,199,908,330,509,503,905,27,338,588,300,777,42,401,88,304,118,815,629,522,720,272,293,909,669,186,29,408,265,836,253,261,162,264,525,322,238,781,156,921,153,228,286,236,495,405,916,289,838,128,464,954,44,844,517,291,821,938,849,639,267,659,910,569,484,339,982,543,90,602,771,666,978,643,851,970,961,890,948,284,888,475,628,442,395,165,414,456,443,71,684,335,734,80,195,175,984,726,170,579,431,112,840,402,609,944,188,636,692,814,940,73,717,355,285,49,955,774,545,743,678,682,377,467,564,690,0,901,892,371,899,489,858,923,732,316,244,956,784,585,904,453,210,217,476,94,67,827,641,835,321,617,813,197,282,124,885,309,715,103,385,200,324,376,881,964,735,805,83,658,867,785,765,74,37,553,184,16,14,449,250,154,999,496,640,793,31,85,652,374,757,746,500,477,596,422,995,848,780,87,672,857,111,9,242,403,64,263,894,601,872,795,237,902,179,532,567,927,662,398,685,483,425,962,571,605,245,698,28,647,178,340,369,366,521,96,256,803,534,806,656,360,167,506,47,563,25,876,566,342,958,106,816,160,465,597,176,432,842,660,998,399,481,550,231,214,143,618,637,990,547,110,631,991,832,30,829,141,912,92,224,445,344,462,996,630,389,824,177,891,570,947,181,271,387,922,138,113,561,69,251,469,804,383,290,696,347,834,417,63,479,104,812,410,504,50,18,655,556,724,752,971,584,65,749,969,713,168,372,778,703,973,21,219,512,779,843,507,303,847,386,149,853,438,131,298,681,133,59,796,870,273,568,468,802,134,846,397,528,957,619,314,75,665,776,68,600,226,436,400,798,223,599,193,163,72,174,485,459,536,914,766,89,951,727,169,633,310,370,701,679,622,207,886,142,934,333,625,992,415,362,279,615,152,441,317,770,869,866,668,295,448,603,925,497,677,810,280,225,41,664,248,546,719,706,409,53,446,623,989,354,683,440,613,426,192,800,712,769,739,287,125,255,240,62,540,926,470,586,109,855,654,598,130,634,831,418,215,40,461,283,518,917,421,492,980,524,19,202,839,950,155,392,334,312,913,626,301,581,243,482,302,137,498,850,276,649,645,670,185,591,145,463,535,77,931,693,5,580,488,343,575,127,985,562,748]","arrowleft","","true","0","7","217","1000","[""0013_N1000_K0217_CLIQUE"",""0049_N1000_K0217_NOCLIQUE""]"
"","","","","","audio-keyboard-response","62","187606","0.0-55.0-0.0-1.0","","null","audio_feedback/right/coin01.mp3","null","","","","","0","7","217","1000","[""0013_N1000_K0217_CLIQUE"",""0049_N1000_K0217_NOCLIQUE""]"
"","","","","","canvas-keyboard-response","63","191714","0.0-56.0-0.0-0.0","","837","","arrowright","[968,342,452,213,288,808,694,876,156,308,163,697,52,826,707,207,780,472,684,860,448,686,397,103,496,243,961,82,570,705,625,922,525,438,585,675,41,679,133,862,459,224,175,722,974,505,852,677,499,263,906,281,198,592,72,878,435,453,853,855,411,353,941,333,204,663,789,60,662,583,486,669,673,910,440,176,350,640,485,815,809,476,358,90,357,285,267,731,37,23,219,667,744,782,559,654,586,65,410,831,387,314,286,107,211,635,846,478,954,811,736,539,381,4,781,695,806,526,651,953,682,754,18,349,967,126,636,646,192,500,310,794,312,237,142,321,467,538,601,957,97,545,639,739,771,480,521,494,130,35,377,20,524,7,217,200,324,792,171,913,942,866,885,116,400,39,355,889,895,442,840,599,31,77,296,9,25,460,514,990,10,530,439,563,737,223,857,434,437,966,872,362,835,952,720,244,924,197,799,634,57,711,335,791,605,800,522,418,190,828,414,648,341,392,607,398,241,612,965,104,710,943,154,660,339,348,93,354,407,145,366,379,983,763,137,33,164,0,43,49,778,741,429,752,415,214,832,557,600,280,160,611,518,898,917,111,759,84,479,428,786,787,802,509,774,658,977,994,970,589,246,51,598,363,112,960,593,118,633,573,166,989,761,67,747,760,728,487,982,699,469,756,750,746,516,473,798,929,691,419,656,582,562,775,218,627,6,309,351,273,75,13,591,587,975,820,555,78,956,810,233,64,504,565,319,623,347,162,83,681,735,569,984,167,801,369,870,577,772,931,553,424,129,908,172,880,751,463,417,300,836,672,304,203,340,371,849,254,868,426,492,344,732,701,769,603,40,85,670,819,378,900,749,713,306,488,416,325,915,220,554,911,196,141,297,932,907,899,683,146,992,507,3,645,511,912,501,976,147,299,629,58,294,177,845,829,552,493,183,887,649,594,247,665,465,315,26,14,44,119,383,818,457,311,148,422,153,948,59,616,745,336,519,157,262,274,550,199,927,816,27,839,471,458,431,122,964,216,506,973,174,827,345,69,891,272,995,242,380,528,655,632,284,847,128,450,940,959,255,797,980,606,45,390,491,194,837,464,757,393,901,394,446,596,101,996,790,17,892,564,590,804,229,91,136,132,95,409,561,641,944,395,46,143,939,269,138,527,81,624,55,875,12,399,36,946,729,825,858,540,322,404,365,579,991,543,920,620,609,668,572,618,215,231,883,884,779,742,764,352,298,187,824,278,489,295,874,978,520,320,8,191,916,822,253,793,558,777,597,113,271,934,290,402,631,209,893,276,784,384,108,212,19,971,385,981,206,235,34,933,588,368,432,830,115,423,159,821,373,287,361,863,100,909,657,54,844,698,441,985,544,926,614,466,250,653,11,291,595,170,66,338,854,29,935,326,947,406,477,127,109,189,823,536,904,360,152,391,925,718,755,897,302,256,331,886,979,102,576,843,261,462,626,239,202,76,181,249,574,510,693,359,180,158,972,323,503,188,313,638,370,738,715,748,513,803,240,443,445,914,813,367,969,841,186,805,551,696,688,547,425,864,549,610,68,275,185,997,265,105,123,905,567,938,768,534,814,252,962,532,542,568,571,945,222,124,848,987,364,257,622,999,674,427,676,193,678,343,396,1,131,869,490,50,928,168,578,283,690,584,150,515,388,652,117,245,74,268,316,234,765,15,508,740,671,307,337,5,541,80,22,449,767,114,664,42,523,730,666,277,644,796,468,62,178,161,356,330,951,134,226,230,318,988,716,70,719,753,703,456,706,87,955,743,921,483,770,236,389,293,279,232,726,560,106,896,421,99,930,881,346,556,859,680,149,963,332,374,140,155,617,248,327,16,317,433,292,328,619,63,842,615,717,405,734,535,602,447,412,871,692,376,807,689,301,475,451,861,566,38,173,949,482,724,305,461,865,630,375,877,79,637,121,430,382,110,420,71,24,30,120,873,727,685,408,894,238,888,783,702,2,548,151,867,182,184,48,32,650,497,776,289,73,512,470,498,773,165,454,169,386,529,86,179,687,919,879,986,643,227,812,502,221,436,604,144,201,785,621,923,708,28,495,282,98,334,208,481,766,401,762,903,61,758,659,47,270,712,833,259,537,700,850,53,902,795,329,950,135,260,661,580,251,88,225,704,608,993,228,642,937,303,714,517,96,613,723,890,205,725,413,56,210,546,484,195,628,266,856,998,834,817,733,918,958,581,936,89,264,94,139,851,21,531,372,647,455,721,474,533,92,838,403,575,788,709,125,258,444,882]","arrowright","","true","0","8","200","1000","[""0095_N1000_K0200_NOCLIQUE"",""0048_N1000_K0200_CLIQUE""]"
"","","","","","audio-keyboard-response","64","192726","0.0-56.0-0.0-1.0","","null","audio_feedback/right/coin01.mp3","null","","","","","0","8","200","1000","[""0095_N1000_K0200_NOCLIQUE"",""0048_N1000_K0200_CLIQUE""]"
"","","","","","canvas-keyboard-response","65","196943","0.0-57.0-0.0-0.0","","784","","arrowleft","[127,799,137,860,516,528,705,731,603,36,39,175,306,677,404,197,501,171,224,667,631,254,227,493,280,708,466,514,135,950,680,3,368,166,551,320,87,451,573,923,274,103,29,985,882,21,489,28,423,228,471,309,165,969,578,352,257,773,704,443,595,424,870,439,662,850,504,73,958,857,668,687,959,390,346,505,155,427,520,865,702,507,693,545,298,64,12,980,35,775,964,50,997,983,542,206,688,710,655,966,976,589,226,162,576,475,534,532,323,284,600,540,167,381,43,18,40,195,621,289,359,237,98,75,300,664,721,136,465,115,751,874,866,842,150,666,791,395,726,623,132,522,444,512,164,526,45,435,239,49,543,956,679,657,566,305,340,14,670,904,142,183,385,188,80,360,238,953,622,829,342,54,747,669,901,410,250,397,372,577,859,582,845,148,977,109,52,561,336,611,955,701,67,743,208,962,347,313,81,948,247,697,783,772,790,650,60,282,745,58,971,182,374,610,508,69,538,355,291,472,113,636,446,934,362,819,862,916,283,100,414,454,994,767,637,203,884,690,483,996,486,847,461,879,784,763,995,826,780,584,909,795,392,905,548,628,373,762,179,133,145,907,915,350,804,832,748,618,597,619,378,855,898,174,828,630,134,221,70,332,627,937,452,25,863,681,981,940,474,506,536,752,34,605,299,714,6,635,800,555,599,23,375,813,308,393,476,929,560,864,241,358,243,335,873,965,640,272,316,442,930,503,856,974,337,521,315,818,746,105,153,231,913,651,559,717,82,973,616,201,648,634,549,910,533,403,268,684,417,462,712,259,653,727,869,235,906,159,771,333,972,189,458,815,537,649,79,902,478,903,126,223,722,550,147,786,211,202,200,593,312,750,111,734,341,438,527,432,781,952,682,919,245,758,125,831,11,732,382,544,765,222,27,569,665,833,836,469,384,585,686,63,992,230,596,187,931,296,450,658,921,61,565,739,96,434,405,942,754,935,66,212,138,429,240,812,588,517,633,379,365,672,918,932,437,789,975,807,448,93,720,310,391,380,13,91,798,848,641,838,366,852,33,982,470,30,787,613,878,861,683,383,835,821,890,554,766,416,518,957,389,94,803,728,92,258,154,440,485,808,756,612,617,880,858,877,264,328,276,242,998,157,273,419,229,510,851,338,119,68,498,324,99,490,891,482,453,172,816,883,519,22,129,716,715,876,146,4,71,914,908,112,279,484,431,563,499,281,330,685,900,492,624,318,951,479,797,233,225,364,353,609,445,671,343,190,19,303,927,946,757,356,124,422,219,768,178,675,327,990,755,652,594,317,244,267,497,297,500,95,785,116,834,459,723,114,920,792,205,473,817,509,811,181,936,169,644,277,321,256,496,639,108,46,180,694,293,491,796,725,591,170,552,846,769,430,820,177,602,625,106,377,583,719,275,608,376,606,601,674,361,925,48,51,814,271,386,104,841,16,607,295,759,402,371,399,689,656,840,128,185,875,673,830,944,447,568,825,357,899,988,1,724,809,428,993,262,968,191,535,292,131,326,464,888,41,742,89,463,711,989,37,709,660,839,86,713,107,455,329,659,210,97,805,456,564,121,270,933,615,44,144,572,718,325,654,967,24,101,592,700,161,433,83,645,156,139,194,65,149,691,586,217,120,887,198,774,90,460,248,531,590,334,984,425,738,56,411,893,209,251,62,176,629,301,110,140,173,354,733,398,322,643,345,954,881,278,31,249,168,924,868,0,979,252,782,204,2,941,802,369,546,304,287,5,406,777,117,8,236,412,917,620,570,255,943,32,413,394,77,339,85,495,761,938,55,837,319,311,872,707,269,160,911,810,737,581,481,102,961,567,468,363,889,143,539,676,553,949,17,88,741,557,349,407,867,502,999,547,15,158,74,7,991,477,152,530,302,10,441,736,84,598,646,778,760,562,253,515,663,216,614,895,218,314,626,788,418,396,53,266,970,215,587,947,729,193,263,42,779,541,793,351,579,420,26,387,388,163,78,151,294,843,494,912,823,696,331,556,827,730,524,604,20,740,698,871,853,661,467,892,344,632,575,801,213,960,72,401,678,285,196,59,261,945,926,234,207,184,220,480,939,186,894,574,638,130,699,986,290,400,896,9,849,513,288,123,141,822,348,367,776,436,199,260,232,692,987,922,928,744,706,370,415,421,897,764,57,886,806,794,749,122,246,753,409,854,457,47,192,38,885,695,529,523,558,265,487,286,511,214,770,525,844,735,307,703,118,580,642,449,76,426,647,978,963,571,408,824,488]","arrowleft","","true","0","9","200","1000","[""0092_N1000_K0200_CLIQUE"",""0034_N1000_K0200_NOCLIQUE""]"
"","","","","","audio-keyboard-response","66","197966","0.0-57.0-0.0-1.0","","null","audio_feedback/right/coin01.mp3","null","","","","","0","9","200","1000","[""0092_N1000_K0200_CLIQUE"",""0034_N1000_K0200_NOCLIQUE""]"
"","","","","","canvas-keyboard-response","67","202502","0.0-58.0-0.0-0.0","","1081","","arrowleft","[223,396,872,738,429,407,875,881,368,376,261,906,773,657,264,858,47,437,71,864,562,158,7,48,312,248,945,590,563,557,302,95,447,408,582,24,215,154,147,420,494,713,151,35,457,395,609,416,36,64,115,236,805,214,832,706,286,635,576,310,171,188,190,886,655,814,543,737,666,403,528,508,980,990,736,552,424,369,870,948,177,776,725,641,17,604,720,930,108,920,888,277,585,989,772,907,599,406,400,702,771,532,808,305,313,26,178,699,955,394,198,560,943,965,269,726,619,201,542,474,140,15,83,79,638,603,691,263,479,913,319,818,534,580,898,232,892,721,503,962,971,356,904,764,133,538,758,890,559,788,656,468,50,530,950,87,894,444,206,815,752,96,238,456,659,361,145,430,216,27,16,385,761,321,455,977,887,332,952,446,661,834,938,202,756,794,631,620,964,82,410,358,362,687,539,320,537,413,568,124,347,382,871,664,622,941,520,103,513,192,11,696,487,240,391,141,252,835,993,422,826,67,107,722,863,273,561,615,450,829,463,134,101,626,956,658,23,502,966,704,275,418,651,895,682,234,662,999,440,211,78,32,551,653,896,588,645,643,885,221,262,329,940,476,837,624,567,56,401,60,116,511,354,593,322,909,91,486,536,976,22,951,768,754,889,847,785,529,99,660,575,912,775,397,317,205,360,859,669,518,114,119,245,168,616,378,18,783,89,928,31,510,778,749,816,496,934,695,431,436,809,663,698,326,564,237,970,296,670,824,741,781,483,545,975,344,65,708,491,692,307,807,584,459,97,883,797,612,10,803,62,363,949,727,57,822,830,341,417,150,70,113,792,40,550,710,642,572,992,173,63,983,153,751,334,908,162,415,58,432,947,209,366,573,594,297,897,595,855,128,817,254,649,185,187,617,683,34,985,667,29,183,299,873,650,434,878,481,611,931,782,208,298,81,679,916,352,200,671,723,349,105,644,110,796,225,136,342,428,675,156,795,445,880,851,289,769,715,507,608,471,251,549,68,374,186,523,283,433,13,519,926,235,499,929,845,309,142,640,284,524,841,276,230,806,647,942,357,170,527,224,484,167,541,389,222,239,338,139,623,102,122,842,517,439,425,272,330,587,602,61,135,98,791,633,995,874,868,226,709,75,165,498,465,535,967,288,579,784,74,285,540,426,480,454,203,553,755,984,932,388,492,120,574,175,893,960,833,488,199,717,899,325,4,315,879,501,137,857,181,505,821,981,146,270,566,804,836,301,293,85,639,164,336,460,184,182,606,372,918,219,477,355,798,266,333,924,790,512,838,45,52,8,811,991,435,957,982,705,112,586,614,637,30,324,364,294,866,700,337,979,21,280,997,571,25,605,733,877,196,350,478,777,0,138,279,163,348,627,402,472,353,703,497,88,327,747,555,5,131,370,256,464,384,380,213,973,676,421,601,787,300,9,953,686,467,204,314,253,882,207,438,6,282,339,665,290,592,229,843,862,869,618,412,865,500,968,367,179,80,734,365,578,925,570,351,414,241,169,780,760,854,127,306,218,19,672,876,996,514,461,547,265,759,905,125,793,591,485,946,194,121,823,155,765,799,846,346,246,419,978,729,654,398,972,152,470,303,748,694,129,812,825,111,628,680,250,466,556,840,910,495,581,197,106,126,409,802,149,607,49,373,160,191,820,291,55,954,632,33,674,786,166,853,730,621,405,914,231,850,475,867,130,610,779,988,249,462,569,390,66,38,427,69,515,994,469,753,228,933,744,731,92,646,922,76,884,84,974,701,958,227,371,109,381,77,193,482,157,14,93,597,392,383,831,598,668,54,117,648,46,724,860,189,750,399,819,565,902,453,51,745,915,767,100,260,233,387,323,42,489,144,652,813,919,328,937,911,636,903,104,546,844,359,148,927,986,12,525,281,681,533,3,506,923,212,629,770,375,311,159,331,143,340,531,90,917,936,274,998,94,217,526,856,509,714,180,712,577,271,521,268,554,44,442,318,684,404,1,774,379,220,548,161,247,41,987,345,944,393,763,900,735,800,921,43,718,762,308,891,449,739,258,689,73,558,411,295,742,901,123,600,493,939,377,732,711,37,849,789,255,504,801,839,516,132,267,743,287,697,473,257,172,963,625,458,242,343,386,259,634,961,441,678,59,278,707,589,244,828,210,630,613,740,423,451,757,848,2,746,969,719,935,522,20,861,728,452,118,827,677,716,335,448,766,316,852,490,176,86,673,690,596,959,693,685,810,292,583,443,544,304,28,72,174,53,39,243,195,688]","arrowleft","","true","0","10","183","1000","[""0082_N1000_K0183_CLIQUE"",""0098_N1000_K0183_NOCLIQUE""]"
"","","","","","audio-keyboard-response","68","203525","0.0-58.0-0.0-1.0","","null","audio_feedback/right/coin01.mp3","null","","","","","0","10","183","1000","[""0082_N1000_K0183_CLIQUE"",""0098_N1000_K0183_NOCLIQUE""]"
"","","","","","canvas-keyboard-response","69","207495","0.0-59.0-0.0-0.0","","785","","arrowright","[211,313,474,814,807,437,26,58,617,479,857,501,275,45,741,574,235,755,828,947,991,513,654,324,845,647,337,416,66,79,922,399,302,879,877,793,955,258,421,105,481,996,632,531,941,197,472,968,611,177,675,271,718,148,785,749,538,34,771,393,284,349,608,406,769,588,680,385,192,650,961,93,490,425,489,878,708,355,790,31,373,524,440,347,51,307,140,60,303,485,334,454,55,125,428,926,842,374,583,262,261,886,744,380,30,39,292,280,586,159,222,286,153,329,844,221,548,801,165,306,183,205,435,150,977,831,43,99,252,499,5,195,635,894,0,578,1,46,167,253,382,591,126,971,898,49,255,986,106,656,700,384,291,174,562,833,341,974,554,602,230,154,676,866,364,766,869,709,539,228,800,365,762,357,890,241,464,777,172,706,557,179,22,629,852,266,138,823,378,795,320,623,808,892,688,677,553,838,887,149,711,296,713,117,841,503,865,767,7,724,366,110,626,813,839,992,549,229,390,694,981,655,496,502,972,400,217,444,726,717,847,704,821,368,431,641,614,242,18,38,799,132,256,452,737,427,693,133,921,194,298,203,731,631,388,376,432,338,8,966,209,68,630,520,353,689,858,836,270,445,530,982,756,728,592,250,147,678,905,166,185,964,570,925,569,319,891,784,871,239,116,451,351,28,937,967,225,352,372,812,214,476,263,111,918,559,889,763,604,606,850,504,433,782,343,430,158,815,848,962,568,798,882,300,69,375,323,139,216,747,25,64,40,603,330,310,410,156,832,526,783,316,846,282,190,465,770,505,883,560,146,59,856,356,115,204,575,786,584,289,486,916,776,212,761,944,535,469,720,360,189,521,589,748,671,96,418,196,392,198,618,80,439,180,610,803,450,779,911,906,859,686,471,89,118,322,76,572,561,264,949,960,822,48,213,129,910,563,120,980,768,339,760,573,547,14,787,121,335,100,791,789,875,896,348,940,487,344,16,637,705,884,413,175,363,102,187,44,861,145,596,738,287,134,923,394,414,983,220,482,590,272,710,86,492,545,514,666,673,41,743,778,764,794,336,601,643,725,970,108,995,113,37,426,843,542,672,354,615,215,412,151,682,484,652,92,155,958,692,580,325,854,301,855,27,619,331,65,377,206,254,931,500,664,649,13,969,927,468,32,309,907,67,950,359,518,383,249,248,533,757,119,417,142,386,130,716,730,685,52,491,251,265,541,990,389,909,824,984,434,920,515,684,285,257,453,470,483,87,294,327,633,494,670,621,231,423,975,661,556,810,912,989,224,648,20,997,226,695,948,739,932,72,527,696,227,495,512,758,473,796,135,904,82,50,358,346,788,587,403,290,957,458,567,868,605,674,91,293,659,644,640,506,851,929,697,97,935,237,834,202,528,566,62,750,829,792,342,53,902,161,315,753,176,993,806,522,840,438,930,733,620,409,594,973,9,595,936,240,612,555,915,259,734,863,511,893,478,811,411,634,201,402,94,870,74,436,131,880,956,424,245,683,457,144,719,781,546,396,188,660,943,488,281,698,571,455,170,199,873,867,283,830,963,3,124,876,543,461,872,954,207,83,243,900,295,645,493,667,218,269,312,529,98,442,81,6,429,622,849,273,690,994,888,899,54,636,311,625,173,163,509,646,279,544,642,582,109,90,510,774,4,448,933,627,497,276,722,404,965,804,924,2,827,152,328,579,407,835,945,721,314,219,178,952,278,759,466,210,669,913,498,460,85,397,532,742,128,917,727,405,277,317,299,987,862,819,141,244,345,825,895,593,536,638,723,565,599,367,576,901,238,577,837,818,477,475,816,184,607,516,885,953,775,860,333,624,540,61,551,70,236,71,746,657,914,663,246,732,752,56,114,797,36,467,701,598,523,11,988,651,653,707,715,712,391,304,169,517,332,938,463,17,745,136,946,297,47,160,613,581,585,441,985,267,662,381,268,735,84,419,208,401,874,979,668,459,95,395,33,164,24,340,29,422,826,702,321,519,361,754,274,415,371,350,318,999,19,802,978,897,193,765,447,908,171,951,232,107,558,462,308,122,78,658,35,191,628,370,127,233,480,443,88,820,223,699,326,305,928,75,550,564,597,740,729,616,143,998,881,182,508,751,639,853,15,773,609,919,260,408,703,21,552,600,123,23,534,398,101,681,73,12,168,537,665,288,181,379,77,10,780,103,456,369,691,57,809,247,446,939,104,387,162,507,805,200,817,934,903,942,112,449,42,63,157,679,362,864,137,714,420,959,234,976,186,687,736,525,772]","arrowright","","true","0","11","183","1000","[""0094_N1000_K0183_NOCLIQUE"",""0093_N1000_K0183_CLIQUE""]"
"","","","","","audio-keyboard-response","70","208526","0.0-59.0-0.0-1.0","","null","audio_feedback/right/coin01.mp3","null","","","","","0","11","183","1000","[""0094_N1000_K0183_NOCLIQUE"",""0093_N1000_K0183_CLIQUE""]"
"","","","","","canvas-keyboard-response","71","212487","0.0-60.0-0.0-0.0","","785","","arrowleft","[342,562,457,551,26,286,198,557,532,390,749,259,68,949,195,128,490,853,498,252,174,955,60,9,649,777,442,194,559,897,130,149,242,237,391,67,434,255,29,587,911,438,941,215,538,324,97,892,797,139,681,617,10,850,308,92,479,240,709,216,923,659,465,123,947,761,229,203,349,632,190,645,585,763,462,38,773,494,881,829,77,728,191,900,692,157,840,790,832,991,558,633,556,93,493,775,463,271,820,591,930,8,550,467,454,369,547,971,516,752,167,49,277,711,710,965,931,116,7,730,296,601,806,629,593,74,740,363,392,129,561,509,729,428,488,641,106,156,278,133,899,262,628,330,658,743,579,79,239,375,327,443,733,373,676,188,100,920,800,610,452,265,343,848,539,908,619,631,273,104,196,895,809,114,977,657,719,134,795,514,856,318,627,145,702,146,214,531,379,42,284,976,429,515,590,863,603,577,331,336,204,103,588,316,179,520,643,403,200,47,855,756,522,231,346,12,524,700,115,646,546,691,394,507,625,351,779,46,706,321,126,726,187,50,534,861,73,326,686,940,276,821,825,503,798,675,882,385,111,15,526,981,626,228,23,235,747,311,890,212,537,332,846,925,523,651,792,618,722,851,760,2,445,144,439,208,281,295,903,500,256,294,0,45,270,859,437,297,575,985,994,59,192,162,909,486,528,734,621,644,374,367,415,581,746,282,430,108,606,165,642,122,61,345,140,21,811,202,888,769,898,988,506,636,594,799,109,830,101,843,502,511,929,328,210,495,844,869,393,876,155,764,381,564,283,461,285,684,696,705,927,458,956,814,83,572,466,655,436,896,384,735,828,574,922,950,924,329,817,127,801,397,690,624,518,408,304,39,567,540,819,251,541,41,170,533,748,620,472,372,16,260,793,679,220,40,504,576,475,402,647,768,66,268,166,765,223,784,34,387,813,261,169,383,595,396,406,69,953,640,750,566,548,999,891,571,292,877,137,333,427,320,441,682,37,325,762,529,669,823,937,753,322,306,364,113,637,398,275,990,230,501,945,211,246,968,668,159,701,887,712,713,948,289,238,936,27,153,227,449,986,309,906,660,860,168,666,54,131,553,787,263,751,770,545,293,5,725,791,674,1,33,650,315,35,530,589,207,177,407,975,244,300,269,44,815,225,695,290,847,808,738,721,605,280,448,519,492,474,724,592,755,476,152,158,447,411,615,431,802,889,954,359,121,491,767,963,389,183,221,57,933,871,71,893,818,789,250,665,664,484,219,446,378,648,935,4,913,267,623,505,98,778,884,857,19,51,348,366,979,148,982,85,926,317,569,980,313,776,78,816,471,854,964,205,161,872,866,487,24,314,905,435,217,81,834,951,616,482,607,288,350,917,867,998,974,796,839,718,707,365,907,810,879,774,141,189,785,357,451,662,944,983,736,708,745,368,838,942,376,36,405,663,173,510,86,266,842,90,894,132,178,916,584,3,89,972,693,967,43,395,535,868,419,254,299,630,88,957,91,578,248,757,914,337,182,380,339,622,639,654,568,222,723,399,910,55,959,236,677,143,485,422,377,353,835,560,984,902,356,849,352,759,517,421,118,18,418,184,885,416,731,565,303,410,425,604,274,862,455,291,864,362,680,563,151,978,794,232,552,481,478,82,76,323,697,312,720,401,742,56,110,477,698,70,833,154,904,932,673,31,444,952,272,703,489,414,826,508,883,94,678,962,613,960,245,302,542,586,358,32,181,612,298,966,135,831,52,611,264,958,62,247,420,11,771,653,175,382,783,672,513,841,714,424,598,176,459,772,600,125,583,608,258,14,544,638,822,741,257,185,689,287,249,875,193,496,307,634,996,992,912,845,84,766,688,400,117,433,370,386,961,685,597,573,334,301,687,172,456,732,499,136,554,199,915,25,412,870,543,694,837,739,652,938,758,224,596,468,480,671,20,836,786,469,582,878,388,75,901,852,87,973,138,22,371,995,440,470,497,969,112,426,243,335,946,827,635,58,667,993,704,319,30,234,656,147,754,921,360,934,28,780,119,807,599,305,142,865,17,716,218,521,453,13,970,361,928,717,580,80,527,355,460,858,186,715,873,744,824,150,602,48,880,338,555,417,661,72,213,473,241,53,918,919,354,512,120,781,525,943,450,124,614,171,201,812,423,788,96,107,341,164,63,609,737,226,699,549,233,64,432,209,310,99,180,409,163,65,874,347,413,989,464,253,805,102,206,160,344,570,536,727,404,483,197,987,95,886,670,340,105,997,803,804,939,683,279,782,6]","arrowleft","","true","0","12","167","1000","[""0096_N1000_K0167_CLIQUE"",""0082_N1000_K0167_NOCLIQUE""]"
"","","","","","audio-keyboard-response","72","213506","0.0-60.0-0.0-1.0","","null","audio_feedback/right/coin01.mp3","null","","","","","0","12","167","1000","[""0096_N1000_K0167_CLIQUE"",""0082_N1000_K0167_NOCLIQUE""]"
"","","","","","canvas-keyboard-response","73","218101","0.0-61.0-0.0-0.0","","1050","","arrowright","[982,98,690,19,351,114,908,131,998,399,249,65,272,885,542,573,882,247,732,581,999,332,242,954,552,145,149,967,583,743,274,191,651,540,818,575,769,733,340,529,796,706,13,674,861,611,823,599,932,348,94,135,961,826,346,363,26,73,703,154,287,637,590,533,448,931,594,52,678,707,109,151,37,883,491,857,194,166,85,836,774,312,383,708,536,303,865,973,652,988,817,837,863,812,232,60,748,100,912,431,475,601,639,606,188,237,646,173,618,390,608,55,218,955,786,804,507,965,418,968,467,459,343,635,549,317,48,415,253,783,300,819,330,719,928,547,132,423,108,723,477,627,281,480,357,833,291,546,74,201,661,67,329,632,150,53,541,202,434,650,824,927,711,710,657,466,898,382,214,925,435,828,40,198,354,221,225,279,395,364,441,705,561,372,31,190,369,227,193,51,292,9,244,350,704,246,737,453,775,676,7,284,446,271,189,320,899,516,97,827,984,341,668,714,27,669,117,509,234,734,789,580,802,454,918,162,794,498,420,624,335,356,371,333,445,589,923,361,895,758,713,602,658,106,258,880,397,873,113,229,267,622,582,697,199,91,241,872,959,597,112,654,392,422,527,700,492,966,664,718,749,159,997,810,679,777,970,712,116,282,848,695,834,306,401,513,321,403,370,522,425,962,990,44,593,558,754,302,846,949,163,673,367,165,14,130,465,740,342,304,440,659,186,545,436,175,172,224,457,187,893,336,609,952,406,525,505,572,419,288,938,412,216,366,182,667,35,476,701,323,993,50,972,278,633,239,889,147,295,170,562,471,289,140,408,110,153,443,685,629,352,587,623,34,728,568,721,305,254,426,200,698,686,11,797,924,144,807,605,874,489,943,251,24,840,462,77,543,722,2,337,481,381,801,119,148,205,795,297,377,849,428,653,919,231,626,38,444,245,374,820,550,760,510,456,30,496,600,365,553,404,385,535,566,470,215,858,203,655,607,484,544,10,765,373,739,891,61,691,261,409,207,790,780,799,914,192,99,500,95,577,208,270,126,768,666,472,716,56,294,755,438,146,322,141,243,625,230,825,137,764,240,838,808,557,400,252,57,793,331,709,538,42,327,761,359,906,980,850,556,18,636,641,554,829,560,715,726,571,586,939,847,468,206,379,87,992,210,942,960,830,677,43,851,989,806,236,778,950,424,564,501,958,747,220,524,940,176,233,23,504,129,71,1,933,935,813,185,447,947,168,325,283,567,672,152,378,963,389,353,640,196,474,951,530,421,926,5,682,259,699,158,155,338,759,767,753,360,213,638,16,671,416,892,856,82,211,811,92,985,506,922,47,660,751,821,478,164,569,396,822,994,12,983,473,876,183,591,290,996,979,387,693,845,574,161,84,384,888,488,36,614,855,179,64,539,756,745,355,46,862,115,877,518,724,842,864,746,319,913,299,493,138,776,32,156,688,537,286,178,458,296,991,520,405,66,275,995,58,612,358,841,613,860,265,971,339,461,615,910,576,890,407,121,904,72,964,223,22,662,20,362,268,21,584,184,531,946,559,515,628,104,86,410,800,93,219,588,414,483,521,945,124,228,921,3,548,766,687,987,174,157,643,528,578,957,160,212,742,773,551,725,460,784,620,78,248,563,266,6,871,347,839,717,485,727,143,45,486,349,328,122,301,464,508,645,41,76,779,694,565,975,665,978,884,413,787,49,25,142,519,380,264,181,334,930,314,127,269,720,235,280,870,238,878,81,311,345,497,512,490,729,879,887,735,432,463,217,730,134,39,394,907,616,905,391,88,798,260,969,344,595,318,791,69,596,433,107,125,901,631,307,736,644,816,123,782,757,859,809,90,617,310,197,929,738,4,814,180,875,911,250,532,788,8,831,948,517,499,867,169,604,744,17,981,792,469,277,411,869,452,495,298,455,781,120,936,111,944,663,585,956,680,900,308,437,451,83,398,402,316,630,511,388,610,262,118,482,941,917,771,442,647,449,139,832,255,684,881,763,579,257,102,80,741,649,293,815,96,256,803,642,570,487,920,376,772,503,702,54,785,79,903,276,843,974,33,916,226,368,285,101,514,854,309,386,136,375,770,835,29,105,696,393,0,670,502,619,526,439,805,986,976,63,534,897,909,75,523,204,886,692,62,634,683,598,731,592,417,681,324,868,28,222,621,894,937,762,656,195,953,648,171,209,177,844,977,450,273,133,89,315,427,603,313,167,934,68,675,479,852,429,750,103,494,752,70,263,853,902,555,430,15,915,896,128,866,59,689,326]","arrowright","","true","0","13","167","1000","[""0076_N1000_K0167_NOCLIQUE"",""0098_N1000_K0167_CLIQUE""]"
"","","","","","audio-keyboard-response","74","219126","0.0-61.0-0.0-1.0","","null","audio_feedback/right/coin01.mp3","null","","","","","0","13","167","1000","[""0076_N1000_K0167_NOCLIQUE"",""0098_N1000_K0167_CLIQUE""]"
"","","","","","canvas-keyboard-response","75","222813","0.0-62.0-0.0-0.0","","318","","arrowright","[691,915,905,506,440,479,456,253,890,644,556,617,742,892,6,692,704,667,176,810,805,277,987,320,995,332,878,359,311,484,417,857,539,226,357,544,211,761,266,694,787,756,133,944,8,488,228,659,111,5,287,454,426,318,826,584,32,920,592,661,930,305,783,473,330,574,911,490,843,734,881,733,487,138,292,50,64,840,653,331,929,76,299,784,295,471,262,2,708,163,884,725,590,724,78,380,847,373,503,48,682,474,785,322,922,35,304,250,464,618,127,863,53,517,298,421,875,513,130,936,260,614,781,121,115,811,628,9,780,639,850,381,161,949,750,681,546,57,738,79,597,315,300,468,522,21,46,684,989,680,670,114,363,852,642,686,555,596,822,306,595,504,418,902,552,818,392,626,435,943,586,268,528,698,887,255,28,481,743,547,324,385,158,69,296,422,429,444,619,376,149,89,526,42,251,788,772,549,112,566,243,457,101,470,386,542,696,338,831,739,341,999,462,98,635,154,791,655,677,483,953,146,675,164,779,391,560,181,230,786,71,10,823,880,405,690,208,860,731,650,431,239,274,437,568,648,629,227,201,879,921,637,582,941,198,425,909,374,241,865,140,472,353,501,685,998,345,362,494,49,478,190,244,370,869,19,577,213,85,801,735,302,132,496,530,240,859,665,978,144,394,461,719,760,128,424,367,535,278,141,624,131,194,986,578,303,430,839,238,523,819,340,135,447,525,647,11,641,633,270,148,264,610,948,167,621,485,188,514,836,15,137,985,143,934,52,712,453,565,564,99,687,45,225,438,886,510,673,825,676,532,683,976,173,992,56,545,548,732,979,13,14,914,387,736,912,966,903,192,896,898,652,625,297,54,745,308,369,3,445,611,789,75,688,882,145,569,612,348,622,505,109,419,216,664,234,269,765,994,842,990,117,913,212,527,666,550,940,649,401,774,37,813,853,336,97,815,378,139,152,942,771,450,347,285,416,928,572,606,317,110,871,817,870,157,328,969,828,325,388,449,368,191,446,406,746,162,759,636,799,678,404,420,901,433,726,701,309,613,939,598,727,150,776,476,872,203,594,702,603,280,935,343,721,219,972,599,693,199,202,977,502,888,273,236,570,945,557,654,327,790,455,18,459,1,600,301,24,723,389,533,207,601,497,62,980,855,627,932,310,185,996,580,254,63,335,838,205,587,342,442,809,170,351,415,963,477,73,573,51,31,463,575,537,354,67,291,377,951,895,907,845,808,973,956,894,512,933,80,159,749,196,434,364,758,957,782,536,174,968,68,531,47,275,95,189,669,350,711,100,166,279,961,288,414,938,689,561,867,441,796,258,224,122,259,821,200,403,763,107,168,591,160,134,954,413,183,218,382,820,486,657,849,955,515,74,908,741,108,126,307,964,585,509,663,816,766,997,136,970,873,854,171,798,541,72,917,521,267,714,507,187,862,334,55,458,674,96,927,410,660,876,623,395,360,66,313,17,319,797,672,222,87,491,529,344,767,837,452,384,165,962,482,983,868,151,206,23,883,423,747,607,697,729,83,806,707,265,752,965,409,124,832,543,314,851,365,398,540,125,33,695,248,229,20,175,129,764,588,713,261,402,631,615,65,39,237,722,321,891,179,753,123,630,337,889,632,800,829,290,323,383,581,910,257,118,281,757,583,846,29,498,830,407,372,737,169,703,103,558,874,448,252,349,562,27,397,538,593,366,102,834,700,864,352,833,835,991,534,769,602,755,645,993,971,958,355,4,105,16,428,283,94,679,316,246,256,326,814,699,84,516,41,90,841,720,480,432,988,26,848,844,777,88,393,58,952,469,605,634,643,500,524,576,773,919,499,804,551,119,967,294,717,231,807,931,519,616,492,396,671,289,81,518,916,620,36,856,142,106,333,86,740,38,795,900,60,116,466,172,728,553,93,775,751,923,451,559,705,646,70,147,249,193,511,554,858,571,0,770,960,286,984,411,668,465,276,34,744,662,209,924,443,379,356,215,43,493,974,221,358,824,792,495,235,926,204,329,178,263,861,827,242,925,950,658,651,981,312,436,638,475,7,408,604,153,12,812,339,754,412,375,718,959,282,284,885,91,706,182,778,563,947,197,768,716,245,223,210,730,180,293,918,214,609,877,866,640,427,520,346,371,186,195,589,489,40,567,220,937,793,508,897,946,217,361,120,794,579,439,762,22,710,184,25,61,30,715,899,156,399,748,608,803,92,904,77,709,390,467,271,232,272,893,82,155,113,233,400,177,104,59,656,975,44,982,906,802,460,247]","arrowleft","","false","0","14","150","1000","[""0059_N1000_K0150_CLIQUE"",""0056_N1000_K0150_NOCLIQUE""]"
"","","","","","audio-keyboard-response","76","223846","0.0-62.0-0.0-1.0","","null","audio_feedback/wrong/error01.mp3","null","","","","","0","14","150","1000","[""0059_N1000_K0150_CLIQUE"",""0056_N1000_K0150_NOCLIQUE""]"
"","","","","","canvas-keyboard-response","77","227298","0.0-63.0-0.0-0.0","","12","","arrowleft","[772,337,732,375,125,951,335,565,86,808,471,984,15,898,340,662,598,803,635,483,852,672,261,686,748,18,128,954,109,85,567,491,921,369,472,647,43,946,909,728,400,719,377,28,696,382,100,264,505,489,595,115,83,760,242,958,834,545,697,196,613,306,124,720,433,134,311,425,34,931,617,820,957,974,577,173,437,139,239,527,740,795,878,190,97,209,733,37,863,649,783,614,154,910,543,251,707,517,344,233,843,657,745,687,699,998,457,127,556,676,194,636,238,332,146,200,59,616,211,501,241,36,788,465,518,347,403,51,700,449,901,680,571,879,794,889,160,285,249,940,72,727,842,776,667,880,222,193,245,918,119,594,230,678,673,654,323,924,324,121,849,247,202,69,524,625,419,317,436,379,681,149,674,907,827,392,609,500,384,813,267,252,288,418,455,32,971,138,956,608,33,5,963,804,746,180,8,16,782,646,275,350,156,389,168,296,873,20,981,806,95,269,414,739,253,928,50,850,983,330,980,585,952,374,79,555,281,570,42,322,256,822,258,835,523,766,866,838,445,204,136,431,74,406,410,357,137,953,411,839,148,904,361,888,607,743,603,434,458,312,897,815,94,175,55,298,529,604,484,919,861,584,692,522,215,70,39,599,308,216,353,41,630,90,157,583,959,210,432,891,396,394,716,874,721,407,872,133,270,112,915,49,355,637,773,777,792,695,778,73,651,61,689,600,512,510,248,56,902,554,446,688,162,513,621,117,66,509,639,868,715,62,161,661,356,488,27,113,448,581,831,96,386,552,9,108,557,21,229,19,964,648,343,164,493,875,118,612,478,442,2,892,313,769,787,310,122,468,3,65,286,818,562,591,11,158,900,422,231,926,217,68,859,26,199,142,224,698,566,895,619,424,656,220,972,111,315,857,24,131,659,949,64,6,485,408,579,798,23,885,198,791,339,801,836,592,511,626,691,299,784,507,412,206,309,443,107,444,569,304,785,329,366,977,693,429,378,257,934,618,544,558,334,391,796,30,447,14,814,532,965,163,473,684,561,650,40,338,867,551,301,7,187,223,263,208,38,116,864,620,105,735,819,710,573,903,908,856,453,765,110,499,205,12,925,153,704,399,771,240,22,45,479,793,496,575,736,832,655,182,176,1,845,98,462,703,547,533,936,80,870,498,520,283,906,273,300,102,140,960,514,430,129,563,469,185,416,71,982,633,147,397,528,744,316,955,279,939,244,372,666,665,504,246,896,63,542,421,887,991,786,587,756,227,685,916,632,730,988,155,596,120,670,186,302,178,890,799,538,477,321,420,886,506,549,712,729,492,365,905,481,937,848,846,809,942,84,550,790,67,165,884,183,325,682,789,634,336,530,605,741,805,781,503,602,415,610,629,753,967,197,747,950,373,463,994,305,962,35,560,29,54,502,363,207,933,780,701,986,126,644,151,829,914,705,172,759,826,10,401,342,132,968,559,548,623,232,932,764,460,114,440,978,883,327,817,521,170,348,643,640,314,763,645,254,709,653,294,237,825,541,525,291,516,438,352,718,143,920,280,60,854,268,346,284,797,371,969,319,564,89,762,409,775,961,677,876,75,297,923,774,88,91,724,57,212,354,535,519,531,184,192,169,841,553,913,464,945,228,869,81,395,742,752,993,750,226,717,722,997,757,331,92,855,723,426,615,800,17,250,203,865,293,851,475,201,944,259,367,660,976,358,586,664,828,292,941,303,882,802,668,213,652,935,734,214,307,25,272,754,181,99,106,582,755,189,987,13,490,821,731,738,917,441,893,195,761,225,47,830,726,546,497,671,417,219,515,266,474,580,144,93,768,277,929,362,679,345,702,751,101,130,749,398,150,388,262,807,271,467,423,234,123,675,779,235,990,999,76,376,359,439,642,159,638,461,487,282,606,877,404,52,840,393,381,713,486,218,588,641,770,995,287,167,454,948,534,833,364,295,289,349,435,290,508,152,385,975,589,860,881,495,725,427,694,413,0,627,351,767,812,631,480,578,370,996,539,77,927,188,103,166,810,333,714,894,456,390,658,177,837,171,823,466,690,255,706,470,911,402,174,236,451,387,622,82,48,597,526,341,824,328,104,985,811,368,611,683,31,537,428,593,912,601,966,145,405,482,844,459,179,816,276,360,536,979,871,922,540,53,862,4,265,572,44,78,624,326,380,989,135,318,476,221,758,669,930,243,973,943,574,191,663,87,711,278,274,576,452,847,992,58,320,46,628,970,141,450,853,494,568,947,708,938,260,899,737,590,858,383]","arrowright","","false","0","15","150","1000","[""0070_N1000_K0150_NOCLIQUE"",""0035_N1000_K0150_CLIQUE""]"
"","","","","","audio-keyboard-response","78","228325","0.0-63.0-0.0-1.0","","null","audio_feedback/wrong/error01.mp3","null","","","","","0","15","150","1000","[""0070_N1000_K0150_NOCLIQUE"",""0035_N1000_K0150_CLIQUE""]"
"","","","","","canvas-keyboard-response","79","231741","0.0-64.0-0.0-0.0","","11","","arrowright","[294,872,497,779,930,177,935,349,565,721,155,241,207,175,557,456,318,388,249,787,544,283,774,742,558,143,21,509,568,758,559,90,931,124,884,30,351,936,961,459,226,251,28,260,125,999,576,641,79,913,464,453,618,898,70,696,608,922,77,14,673,840,855,689,244,998,304,128,954,451,210,473,613,867,144,99,59,526,161,676,912,810,711,119,93,862,347,222,164,843,765,776,781,813,193,720,503,918,5,877,37,291,678,56,390,897,606,208,653,138,317,983,945,655,130,176,44,49,567,569,217,320,368,367,553,366,266,923,571,501,965,457,871,963,26,994,615,633,306,275,439,951,786,238,373,315,269,302,117,469,619,343,552,783,333,710,191,50,865,337,899,356,40,281,235,106,91,152,285,583,635,586,603,960,403,355,780,27,665,471,584,245,321,888,171,72,820,159,835,889,908,590,677,543,142,735,730,34,666,231,657,391,195,472,525,327,352,206,980,121,413,295,782,86,308,223,870,712,204,43,690,882,670,801,929,529,289,675,812,296,934,770,856,107,466,879,57,714,733,969,470,993,582,384,165,745,940,394,950,623,591,738,716,430,518,402,508,746,488,71,319,127,278,112,827,476,334,139,197,406,215,839,825,756,477,322,461,17,974,268,305,190,598,429,202,262,480,652,344,681,823,845,874,78,157,573,236,893,58,411,649,213,601,253,131,259,688,881,81,221,857,419,211,67,585,709,463,33,766,465,506,116,407,858,970,310,541,803,592,809,53,824,332,682,2,20,683,428,280,362,550,474,247,340,36,381,396,527,387,836,109,837,228,910,149,997,437,747,209,775,123,630,16,947,409,111,66,895,705,25,528,975,570,147,224,646,498,984,500,808,288,448,685,129,988,593,903,804,891,246,555,768,875,654,371,102,54,662,487,921,647,385,985,314,173,183,85,715,680,545,977,398,10,502,701,625,732,196,450,328,420,114,449,924,767,0,578,444,264,990,645,48,852,600,860,74,292,174,386,103,661,761,134,339,757,806,468,410,286,620,499,773,819,342,405,377,609,415,920,777,160,703,303,946,369,374,452,64,753,955,731,68,417,475,447,287,744,846,76,996,98,492,94,255,132,551,495,354,521,976,167,489,261,298,23,978,504,686,242,669,73,383,89,24,847,454,627,717,505,324,713,446,359,150,82,519,832,868,964,637,796,589,115,905,563,866,105,19,844,560,256,35,697,140,892,184,979,482,822,364,438,572,512,282,273,440,723,163,523,636,708,915,524,248,237,864,3,243,831,87,316,629,778,638,8,162,729,96,400,580,365,240,348,919,507,763,938,547,900,659,632,793,113,118,510,230,375,854,694,467,424,672,883,784,254,762,642,126,229,579,562,225,759,153,953,878,607,326,414,416,198,772,300,658,257,29,581,442,577,443,906,393,828,84,614,958,182,574,462,136,156,992,702,389,751,220,907,290,426,991,100,952,706,158,602,401,151,7,596,170,564,626,338,622,335,232,484,205,483,734,382,274,331,200,948,293,989,640,660,760,838,534,962,60,517,643,719,986,516,325,267,122,624,311,755,540,168,252,741,815,363,494,95,788,887,890,346,859,667,166,926,829,549,412,800,679,478,700,807,496,621,62,4,531,933,628,65,771,272,805,671,949,32,392,932,41,873,276,664,795,917,863,395,817,941,380,212,802,914,11,901,239,194,587,556,172,361,656,491,341,726,987,297,886,309,120,639,187,372,959,687,648,797,75,725,692,490,942,722,379,644,493,38,18,431,336,693,594,108,408,186,604,982,995,181,6,357,785,445,966,47,973,691,842,542,219,939,312,218,80,511,896,376,535,110,566,850,250,265,214,284,814,192,61,485,707,885,663,916,301,216,9,422,51,479,481,704,853,811,358,634,423,727,791,554,329,826,433,185,330,754,764,12,880,789,575,848,514,432,536,277,561,749,279,436,13,548,201,52,851,270,957,435,178,522,869,816,925,956,520,750,728,378,455,651,533,830,399,515,937,631,434,674,743,944,981,904,792,135,861,799,141,968,718,650,137,668,699,397,698,605,684,460,588,39,530,101,794,425,928,345,695,421,737,148,740,617,350,299,97,790,943,818,610,271,227,45,894,179,611,42,104,538,180,748,769,441,599,902,418,911,537,199,92,22,145,833,307,31,595,849,532,927,263,353,203,736,133,83,258,404,154,724,313,971,458,841,323,88,612,1,546,739,360,513,486,69,15,967,876,539,752,616,169,234,63,597,972,370,909,233,188,146,798,55,189,46,821,427,834]","arrowright","","true","0","16","133","1000","[""0015_N1000_K0133_NOCLIQUE"",""0004_N1000_K0133_CLIQUE""]"
"","","","","","audio-keyboard-response","80","232766","0.0-64.0-0.0-1.0","","null","audio_feedback/right/coin01.mp3","null","","","","","0","16","133","1000","[""0015_N1000_K0133_NOCLIQUE"",""0004_N1000_K0133_CLIQUE""]"
"","","","","","canvas-keyboard-response","81","236436","0.0-65.0-0.0-0.0","","11","","arrowright","[246,760,987,188,790,207,573,384,707,906,546,693,99,334,330,114,709,407,848,156,479,309,920,497,425,404,888,825,576,734,396,503,556,2,279,898,20,108,986,488,999,263,333,356,598,122,584,754,175,783,137,208,916,183,358,305,633,583,298,533,521,931,227,163,697,634,169,823,695,813,887,668,493,877,39,179,653,44,318,757,940,291,14,722,908,654,635,856,661,547,804,317,910,199,506,557,974,859,77,520,67,158,454,566,762,7,537,915,772,476,469,686,840,955,729,245,261,410,998,945,475,178,767,124,881,565,439,622,738,933,593,944,150,564,91,112,346,925,395,714,335,274,377,451,982,642,705,251,673,355,362,288,452,389,605,720,42,891,399,737,632,200,620,151,719,831,972,262,242,300,912,745,378,706,649,73,942,348,501,560,233,205,127,416,19,88,829,314,841,216,402,958,606,970,832,192,292,551,275,33,963,419,79,327,90,872,752,310,966,266,340,897,16,270,835,336,971,938,666,239,423,514,45,902,627,704,177,799,871,855,272,571,157,951,967,672,229,48,27,96,868,892,508,991,554,414,202,357,751,731,40,747,519,161,512,470,328,125,257,403,322,392,301,387,243,980,31,123,10,269,145,258,924,513,711,448,807,880,136,834,324,658,597,796,487,190,431,103,976,113,117,119,484,954,874,948,280,827,764,899,339,509,57,833,541,235,505,59,278,946,500,624,331,447,582,436,290,773,294,943,413,755,651,849,975,973,182,147,824,56,308,453,989,577,865,580,241,684,798,164,329,144,244,426,98,97,139,922,977,730,463,283,210,12,968,186,574,109,629,296,282,961,775,517,809,988,814,250,766,62,492,364,552,789,985,694,932,702,226,950,596,126,907,914,890,692,545,17,713,66,22,996,536,802,717,85,544,204,646,708,768,441,863,515,527,172,784,992,225,75,32,78,221,372,130,46,52,786,215,82,670,26,445,936,494,141,382,648,934,230,201,349,615,808,529,76,639,459,363,502,70,189,50,398,758,852,810,781,25,671,121,483,374,712,277,409,895,779,530,276,265,152,681,869,69,491,631,870,5,422,36,320,718,826,785,47,455,691,264,271,84,618,667,228,750,383,105,687,23,716,457,900,132,592,837,74,979,133,30,575,260,415,735,284,572,343,543,805,287,281,866,321,366,286,462,619,674,610,884,89,295,304,477,603,769,365,710,49,682,604,611,171,442,434,538,818,369,465,268,237,466,218,361,181,65,581,162,316,889,850,104,367,393,111,319,435,138,853,701,154,432,297,421,650,542,742,351,625,223,728,211,248,135,969,11,196,342,430,326,323,254,212,612,525,195,155,386,929,830,467,41,160,456,219,58,568,978,315,939,995,838,54,134,879,811,617,657,176,184,302,935,740,468,460,680,539,861,896,732,846,213,412,102,570,373,941,878,594,444,797,778,609,626,901,86,643,919,522,504,873,437,875,638,53,964,34,965,311,864,71,959,748,526,354,858,313,474,165,744,721,662,600,688,174,678,379,630,659,143,38,815,930,774,149,857,209,464,917,496,911,371,394,595,765,845,472,602,417,608,882,370,587,285,777,644,795,424,140,338,660,997,28,776,214,561,400,788,385,836,61,450,495,397,685,628,993,115,6,867,167,13,159,793,749,675,854,803,937,771,677,507,746,92,72,259,120,131,180,599,293,191,187,860,198,753,252,449,806,669,360,756,621,665,303,217,253,588,170,613,723,817,68,663,885,616,51,411,106,446,1,928,307,759,736,843,43,703,851,420,821,715,9,923,489,640,981,499,480,428,429,524,801,523,81,893,438,994,637,482,960,110,862,699,984,63,656,962,60,601,381,375,345,37,820,3,146,679,645,534,647,18,406,641,652,516,80,549,388,590,655,847,664,763,94,485,256,586,203,408,332,128,299,153,148,359,418,236,794,24,341,35,883,952,458,166,696,193,636,904,532,585,173,550,231,819,770,927,490,733,376,792,903,116,553,918,510,816,761,390,118,905,567,473,698,64,683,21,540,29,739,535,690,956,461,391,607,267,812,8,306,471,842,559,206,700,101,953,623,913,511,578,95,83,222,87,947,724,4,518,562,247,743,990,498,352,800,727,433,15,558,876,894,249,478,401,528,238,129,440,726,405,325,909,240,949,255,787,780,380,368,725,926,531,289,555,185,100,839,563,224,220,273,350,548,791,427,983,344,828,486,234,591,689,55,676,353,579,957,232,347,886,107,168,569,844,921,589,337,614,782,443,481,741,194,312,93,0,822,197,142]","arrowleft","","false","0","17","133","1000","[""0060_N1000_K0133_CLIQUE"",""0045_N1000_K0133_NOCLIQUE""]"
"","","","","","audio-keyboard-response","82","237445","0.0-65.0-0.0-1.0","","null","audio_feedback/wrong/error01.mp3","null","","","","","0","17","133","1000","[""0060_N1000_K0133_CLIQUE"",""0045_N1000_K0133_NOCLIQUE""]"
"","","","","","canvas-keyboard-response","83","243705","0.0-66.0-0.0-0.0","","3164","","arrowright","[715,68,964,778,855,824,567,674,866,394,412,927,946,919,341,6,151,432,980,624,825,323,0,131,190,446,551,112,303,835,898,690,23,627,759,356,789,972,281,329,929,423,27,525,705,207,280,566,520,364,3,960,245,880,645,951,565,260,371,709,962,799,975,944,111,165,669,811,646,22,805,171,613,754,125,141,346,232,158,881,662,790,379,490,425,775,532,957,224,982,940,299,318,18,441,742,137,792,720,832,73,573,663,448,836,768,860,383,785,985,315,822,477,177,342,195,491,476,635,936,969,654,370,942,884,180,321,833,373,138,228,236,200,473,710,427,461,430,45,682,67,269,574,796,75,953,362,814,251,911,945,388,71,206,463,229,444,174,161,230,479,517,431,210,795,405,963,667,392,168,586,564,192,393,882,8,140,763,4,110,160,25,466,121,292,954,665,375,611,596,474,550,248,227,677,381,995,896,326,35,469,267,562,194,595,640,509,877,670,617,197,804,457,325,673,164,676,328,541,53,559,26,524,95,355,101,699,672,987,717,577,714,888,343,38,46,14,769,753,636,451,337,136,258,970,757,787,918,31,113,212,516,510,86,591,276,32,783,589,435,55,537,403,581,290,707,134,700,650,968,729,680,512,235,15,480,377,862,439,928,319,304,997,678,605,449,831,332,912,793,922,488,482,282,410,374,29,108,128,284,907,579,511,216,308,156,215,867,118,504,761,996,88,604,78,365,124,808,389,542,459,334,330,840,844,609,983,614,978,63,443,649,152,870,440,310,588,692,548,875,293,36,289,119,483,774,340,17,264,841,127,367,104,60,908,797,12,926,188,657,246,311,219,979,225,254,802,791,689,58,116,601,661,647,105,283,948,155,470,693,372,70,656,905,298,436,868,98,184,272,250,297,497,338,897,146,619,572,126,309,821,664,76,51,694,737,732,87,241,62,173,273,518,536,59,240,557,438,529,243,597,528,607,103,185,914,37,981,500,179,744,352,92,147,50,357,271,237,320,538,852,723,294,453,114,568,817,456,731,169,203,772,317,891,902,801,990,333,275,515,873,478,57,21,958,628,40,437,85,366,408,399,531,519,984,816,815,600,358,16,846,843,43,353,217,925,842,934,803,856,442,952,252,91,924,648,97,854,339,498,837,419,220,24,666,543,545,28,712,99,871,575,429,204,590,508,221,214,869,986,186,7,762,89,507,800,845,460,758,716,175,167,777,910,157,702,571,688,660,100,883,544,639,218,424,397,820,348,687,988,956,999,989,540,129,642,651,505,143,698,853,301,209,878,41,279,434,994,857,261,539,599,291,879,630,213,322,54,893,861,711,345,943,719,416,142,226,728,94,889,523,626,66,752,503,746,233,486,621,851,102,193,563,277,187,148,285,132,612,592,683,130,658,598,196,823,848,19,966,549,553,481,502,349,973,585,961,684,139,176,766,863,637,971,172,400,300,159,974,998,788,941,133,1,106,61,900,950,409,386,887,558,170,555,313,931,181,695,976,314,847,452,819,939,780,916,561,42,417,547,465,560,244,467,344,428,120,288,117,818,263,13,838,398,679,724,312,632,839,582,402,445,49,634,514,691,255,144,489,296,739,750,917,74,506,468,830,569,327,813,872,730,145,83,522,396,556,620,223,79,222,865,622,894,378,959,625,909,368,493,812,10,616,513,829,704,904,932,496,65,885,696,305,807,725,967,499,306,401,935,9,414,659,487,247,259,655,81,270,671,69,354,786,602,458,347,231,475,274,546,633,472,892,756,809,420,993,965,350,629,265,745,64,447,107,96,183,413,615,686,610,618,521,11,93,770,977,920,810,578,643,741,208,771,718,390,991,638,415,278,205,109,955,189,454,526,44,201,450,115,471,641,369,554,534,876,268,644,827,913,384,5,90,324,576,859,492,239,760,748,533,890,494,535,182,380,485,527,930,249,580,713,501,385,80,608,253,426,52,421,740,82,721,407,850,455,779,594,234,360,2,749,653,798,764,295,149,418,336,286,751,411,992,406,606,583,706,153,901,937,30,238,84,552,464,570,530,47,422,199,681,48,331,726,685,335,150,135,162,363,903,154,784,915,163,587,287,947,668,211,834,623,72,886,603,256,923,262,376,495,708,895,849,404,122,395,202,166,584,781,631,307,462,864,899,484,765,77,782,351,178,697,266,361,736,652,56,433,747,302,858,359,701,675,722,773,39,727,743,198,593,34,933,391,735,123,734,826,33,776,382,921,20,733,906,874,828,387,755,316,257,767,703,738,242,191,938,949,794,806]","arrowright","","true","0","18","117","1000","[""0013_N1000_K0117_NOCLIQUE"",""0046_N1000_K0117_CLIQUE""]"
"","","","","","audio-keyboard-response","84","244725","0.0-66.0-0.0-1.0","","null","audio_feedback/right/coin01.mp3","null","","","","","0","18","117","1000","[""0013_N1000_K0117_NOCLIQUE"",""0046_N1000_K0117_CLIQUE""]"
"","","","","","canvas-keyboard-response","85","252533","0.0-67.0-0.0-0.0","","4599","","arrowright","[713,964,65,653,665,189,672,834,846,564,539,942,718,274,64,679,25,317,980,37,741,978,212,432,597,233,661,691,318,909,207,779,515,440,968,657,876,643,686,673,242,693,93,479,397,60,127,398,524,616,47,111,671,858,257,760,142,705,407,830,784,584,435,162,973,487,600,408,284,812,624,869,954,146,56,961,81,7,638,853,179,884,842,986,42,895,758,445,400,648,896,646,940,381,917,981,33,328,315,465,776,428,845,862,838,97,619,521,603,586,258,358,598,246,125,232,976,174,262,797,669,403,447,70,364,707,905,548,922,441,427,675,210,196,393,889,483,945,50,221,809,575,926,714,847,390,522,192,494,509,394,396,161,740,279,26,32,645,151,437,410,690,561,302,982,837,109,311,835,103,30,606,993,370,608,194,875,514,446,500,27,486,253,696,923,402,951,298,333,676,518,352,254,732,849,301,694,823,176,471,958,836,458,425,308,710,105,41,163,21,728,566,851,703,182,20,74,782,348,828,16,537,815,791,662,345,305,75,872,215,557,702,175,772,206,885,223,76,166,589,879,799,411,611,535,220,199,343,891,733,904,542,644,478,316,156,73,725,924,386,43,996,928,716,873,222,579,354,341,955,366,92,367,855,793,147,559,900,765,802,995,214,204,11,998,497,401,434,560,379,831,651,248,711,547,376,275,71,280,565,216,631,948,334,359,237,438,460,738,850,184,543,878,213,635,938,250,399,256,892,165,950,912,957,24,857,944,700,790,245,825,640,22,231,911,357,104,265,805,622,429,519,78,190,768,297,186,492,786,726,513,840,137,759,502,326,620,294,546,659,943,685,721,538,227,493,160,154,886,901,463,193,573,77,541,747,353,205,83,469,291,385,140,552,593,181,325,532,602,218,906,80,346,684,558,568,282,180,126,554,540,822,888,781,61,880,501,369,988,735,13,79,313,134,421,150,391,153,664,617,413,171,874,197,35,40,158,729,200,249,136,133,238,123,337,750,36,724,39,374,762,68,756,819,243,235,755,412,746,553,715,966,783,157,843,143,916,225,371,890,789,806,649,903,475,278,974,303,507,929,306,639,155,14,336,761,384,591,810,941,228,452,226,870,461,592,286,946,962,739,894,395,31,128,101,322,57,46,433,720,629,534,330,604,84,338,124,281,239,778,723,530,636,864,247,563,796,697,754,615,567,59,667,244,283,827,731,417,85,17,898,450,451,332,517,454,969,360,405,365,331,132,677,320,424,698,701,499,102,601,856,670,467,655,327,307,288,933,863,960,921,808,314,188,241,860,633,203,734,58,2,730,88,18,268,770,594,997,251,264,130,273,477,956,149,100,309,818,748,351,841,234,751,449,959,848,271,727,344,511,832,666,131,208,763,419,67,658,642,349,115,335,261,442,106,752,481,191,276,852,420,571,798,556,913,95,484,466,260,737,430,647,28,170,582,578,654,91,749,516,953,168,587,378,415,512,865,775,426,12,717,551,826,897,480,444,108,148,329,138,380,255,987,423,610,596,363,183,269,34,745,323,927,814,389,795,324,919,295,489,139,769,9,114,177,663,979,51,807,637,625,990,687,392,120,991,774,766,908,915,994,867,970,129,474,476,443,45,902,949,609,630,528,839,585,382,289,820,866,240,164,355,854,350,498,431,777,201,668,704,788,753,116,236,562,49,531,623,55,861,907,811,757,829,947,972,920,169,293,86,526,787,172,117,989,229,527,495,187,614,882,520,485,708,868,682,292,743,356,362,141,510,572,404,767,152,263,632,952,198,377,29,736,570,967,285,934,506,110,641,287,1,607,992,588,963,119,82,525,971,722,709,581,272,590,555,583,984,53,342,491,375,185,544,98,296,8,62,577,44,453,270,674,508,712,135,457,689,914,549,319,99,217,339,706,804,6,455,456,626,23,692,744,202,448,4,304,63,496,595,844,688,224,699,209,660,69,883,388,680,545,321,422,72,373,121,965,794,87,817,340,505,89,488,627,695,473,361,621,38,824,310,612,211,504,464,893,387,462,773,15,821,439,618,930,910,414,877,368,300,482,468,416,977,219,859,813,418,580,683,490,771,409,159,936,800,173,574,871,299,899,145,792,681,780,230,52,628,10,652,999,599,290,178,459,0,113,975,719,5,764,383,576,742,937,801,66,167,267,144,90,785,550,122,107,816,939,650,918,634,3,569,678,931,983,252,536,881,932,523,470,96,277,312,112,935,406,925,436,266,656,985,54,833,48,533,605,613,195,503,887,529,118,472,347,94,372,803,19,259]","arrowright","","true","0","19","117","1000","[""0085_N1000_K0117_NOCLIQUE"",""0028_N1000_K0117_CLIQUE""]"
"","","","","","audio-keyboard-response","86","253545","0.0-67.0-0.0-1.0","","null","audio_feedback/right/coin01.mp3","null","","","","","0","19","117","1000","[""0085_N1000_K0117_NOCLIQUE"",""0028_N1000_K0117_CLIQUE""]"
