"success","timeout","failed_images","failed_audio","failed_video","trial_type","trial_index","time_elapsed","internal_node_id","view_history","rt","stimulus","response","nodes_order","correct_response","graphs_couple","accuracy","block_index","presentation_index","clique_size","graph_size","graphs_names"
"true","false","[]","[]","[]","preload","0","3507","0.0-0.0","","","","","","","","","","","","",""
"","","","","","pavlovia","1","3938","0.0-1.0","","","","","","","","","","","","",""
"","","","","","instructions","2","14435","0.0-2.0","[{""page_index"":0,""viewing_time"":6745},{""page_index"":1,""viewing_time"":3746}]","10492","","","","","","","","","","",""
"true","false","[]","[]","[]","preload","3","31411","0.0-3.0","","","","","","","","","","","","",""
"","","","","","instructions","4","236386","0.0-4.0","[{""page_index"":0,""viewing_time"":79645},{""page_index"":1,""viewing_time"":1559},{""page_index"":2,""viewing_time"":1202},{""page_index"":3,""viewing_time"":76},{""page_index"":4,""viewing_time"":722},{""page_index"":3,""viewing_time"":689},{""page_index"":2,""viewing_time"":286},{""page_index"":3,""viewing_time"":381},{""page_index"":4,""viewing_time"":457},{""page_index"":5,""viewing_time"":504},{""page_index"":6,""viewing_time"":429},{""page_index"":7,""viewing_time"":418},{""page_index"":8,""viewing_time"":845},{""page_index"":9,""viewing_time"":927},{""page_index"":10,""viewing_time"":554},{""page_index"":11,""viewing_time"":559},{""page_index"":12,""viewing_time"":502},{""page_index"":13,""viewing_time"":455},{""page_index"":14,""viewing_time"":796},{""page_index"":15,""viewing_time"":1462},{""page_index"":16,""viewing_time"":1340},{""page_index"":17,""viewing_time"":433},{""page_index"":18,""viewing_time"":428},{""page_index"":19,""viewing_time"":590},{""page_index"":20,""viewing_time"":609},{""page_index"":21,""viewing_time"":546},{""page_index"":22,""viewing_time"":574},{""page_index"":23,""viewing_time"":428},{""page_index"":24,""viewing_time"":924},{""page_index"":25,""viewing_time"":2375},{""page_index"":26,""viewing_time"":1904},{""page_index"":27,""viewing_time"":500},{""page_index"":28,""viewing_time"":370},{""page_index"":29,""viewing_time"":325},{""page_index"":30,""viewing_time"":281},{""page_index"":31,""viewing_time"":340},{""page_index"":32,""viewing_time"":1325},{""page_index"":33,""viewing_time"":653},{""page_index"":34,""viewing_time"":374},{""page_index"":35,""viewing_time"":273},{""page_index"":36,""viewing_time"":620},{""page_index"":35,""viewing_time"":218},{""page_index"":34,""viewing_time"":175},{""page_index"":33,""viewing_time"":163},{""page_index"":32,""viewing_time"":231},{""page_index"":31,""viewing_time"":364},{""page_index"":32,""viewing_time"":488},{""page_index"":31,""viewing_time"":388},{""page_index"":32,""viewing_time"":1690},{""page_index"":31,""viewing_time"":493},{""page_index"":30,""viewing_time"":449},{""page_index"":31,""viewing_time"":862},{""page_index"":32,""viewing_time"":2942},{""page_index"":33,""viewing_time"":1657},{""page_index"":32,""viewing_time"":524},{""page_index"":31,""viewing_time"":447},{""page_index"":32,""viewing_time"":3943},{""page_index"":33,""viewing_time"":820},{""page_index"":34,""viewing_time"":773},{""page_index"":35,""viewing_time"":5372},{""page_index"":36,""viewing_time"":675},{""page_index"":37,""viewing_time"":13877},{""page_index"":38,""viewing_time"":1444},{""page_index"":39,""viewing_time"":447},{""page_index"":38,""viewing_time"":2190},{""page_index"":39,""viewing_time"":755},{""page_index"":40,""viewing_time"":10850},{""page_index"":39,""viewing_time"":573},{""page_index"":38,""viewing_time"":533},{""page_index"":39,""viewing_time"":416},{""page_index"":38,""viewing_time"":1399},{""page_index"":39,""viewing_time"":825},{""page_index"":40,""viewing_time"":1084},{""page_index"":39,""viewing_time"":1832},{""page_index"":40,""viewing_time"":1375},{""page_index"":41,""viewing_time"":3736},{""page_index"":42,""viewing_time"":754},{""page_index"":43,""viewing_time"":2283},{""page_index"":44,""viewing_time"":1569},{""page_index"":45,""viewing_time"":1157},{""page_index"":46,""viewing_time"":646},{""page_index"":47,""viewing_time"":801},{""page_index"":48,""viewing_time"":998},{""page_index"":49,""viewing_time"":1554},{""page_index"":50,""viewing_time"":1880},{""page_index"":49,""viewing_time"":393},{""page_index"":48,""viewing_time"":777},{""page_index"":47,""viewing_time"":499},{""page_index"":46,""viewing_time"":1839},{""page_index"":45,""viewing_time"":385},{""page_index"":46,""viewing_time"":666},{""page_index"":45,""viewing_time"":402},{""page_index"":44,""viewing_time"":787},{""page_index"":43,""viewing_time"":2135},{""page_index"":44,""viewing_time"":667},{""page_index"":45,""viewing_time"":642},{""page_index"":46,""viewing_time"":935},{""page_index"":47,""viewing_time"":664},{""page_index"":48,""viewing_time"":629},{""page_index"":49,""viewing_time"":993},{""page_index"":50,""viewing_time"":525},{""page_index"":51,""viewing_time"":8712}]","204974","","","","","","","","","","",""
"","","","","","instructions","5","376543","0.0-5.0","[{""page_index"":0,""viewing_time"":140153}]","140153","","","","","","","","","","",""
"true","false","[]","[]","[]","preload","6","413629","0.0-6.0","","","","","","","","","","","","",""
"","","","","","image-keyboard-response","7","427342","0.0-7.0","","13705","tutorial/task_familiarization_images/part 1/01_N160_K90_cliqueRight_question1.PNG"," ","","","","","","","","",""
"","","","","","image-keyboard-response","8","430028","0.0-8.0","","2685","tutorial/task_familiarization_images/part 1/02_N160_K90_cliqueRight_question2.PNG"," ","","","","","","","","",""
"","","","","","image-keyboard-response","9","430978","0.0-9.0","","948","tutorial/task_familiarization_images/part 1/03_N160_K90_cliqueRight_question3.PNG","arrowright","","","","","","","","",""
"","","","","","image-keyboard-response","10","432139","0.0-10.0","","1157","tutorial/task_familiarization_images/part 1/04_N160_K90_cliqueRight_solution.PNG"," ","","","","","","","","",""
"","","","","","image-keyboard-response","11","433323","0.0-11.0","","1183","tutorial/task_familiarization_images/part 1/05_N160_K65_cliqueRight_question1.PNG"," ","","","","","","","","",""
"","","","","","image-keyboard-response","12","434937","0.0-12.0","","1613","tutorial/task_familiarization_images/part 1/06_N160_K65_cliqueRight_question2.PNG"," ","","","","","","","","",""
"","","","","","image-keyboard-response","13","435990","0.0-13.0","","1051","tutorial/task_familiarization_images/part 1/07_N160_K65_cliqueRight_question3.PNG","arrowright","","","","","","","","",""
"","","","","","image-keyboard-response","14","439864","0.0-14.0","","3872","tutorial/task_familiarization_images/part 1/08_N160_K65_cliqueRight_solution.PNG"," ","","","","","","","","",""
"","","","","","image-keyboard-response","15","441590","0.0-15.0","","1724","tutorial/task_familiarization_images/part 1/09_N160_K50_cliqueLeft_question1.PNG"," ","","","","","","","","",""
"","","","","","image-keyboard-response","16","444498","0.0-16.0","","2907","tutorial/task_familiarization_images/part 1/10_N160_K50_cliqueLeft_question2.PNG"," ","","","","","","","","",""
"","","","","","image-keyboard-response","17","446180","0.0-17.0","","1681","tutorial/task_familiarization_images/part 1/11_N160_K50_cliqueLeft_question3.PNG","arrowleft","","","","","","","","",""
"","","","","","image-keyboard-response","18","447455","0.0-18.0","","1274","tutorial/task_familiarization_images/part 1/12_N160_K50_cliqueLeft_solution.PNG"," ","","","","","","","","",""
"","","","","","image-keyboard-response","19","449099","0.0-19.0","","1641","tutorial/task_familiarization_images/part 1/13_N160_K80_cliqueLeft_question1.PNG"," ","","","","","","","","",""
"","","","","","image-keyboard-response","20","449728","0.0-20.0","","628","tutorial/task_familiarization_images/part 1/14_N160_K80_cliqueLeft_question2.PNG"," ","","","","","","","","",""
"","","","","","image-keyboard-response","21","450405","0.0-21.0","","675","tutorial/task_familiarization_images/part 1/15_N160_K80_cliqueLeft_question3.PNG","arrowleft","","","","","","","","",""
"","","","","","image-keyboard-response","22","451153","0.0-22.0","","747","tutorial/task_familiarization_images/part 1/16_N160_K80_cliqueLeft_solution.PNG"," ","","","","","","","","",""
"","","","","","image-keyboard-response","23","453988","0.0-23.0","","2830","tutorial/task_familiarization_images/part 1/17_N160_K40_cliqueRight_question1.PNG"," ","","","","","","","","",""
"","","","","","image-keyboard-response","24","455220","0.0-24.0","","1231","tutorial/task_familiarization_images/part 1/18_N160_K40_cliqueRight_question2.PNG"," ","","","","","","","","",""
"","","","","","image-keyboard-response","25","456527","0.0-25.0","","1305","tutorial/task_familiarization_images/part 1/19_N160_K40_cliqueRight_question3.PNG","arrowright","","","","","","","","",""
"","","","","","image-keyboard-response","26","457413","0.0-26.0","","884","tutorial/task_familiarization_images/part 1/20_N160_K40_cliqueRight_solution.PNG"," ","","","","","","","","",""
"","","","","","image-keyboard-response","27","458874","0.0-27.0","","1459","tutorial/task_familiarization_images/part 1/21_N160_K70_cliqueLeft_question1.PNG"," ","","","","","","","","",""
"","","","","","image-keyboard-response","28","460254","0.0-28.0","","1378","tutorial/task_familiarization_images/part 1/22_N160_K70_cliqueLeft_question2.PNG"," ","","","","","","","","",""
"","","","","","image-keyboard-response","29","460792","0.0-29.0","","537","tutorial/task_familiarization_images/part 1/23_N160_K70_cliqueLeft_question3.PNG","arrowleft","","","","","","","","",""
"","","","","","image-keyboard-response","30","461696","0.0-30.0","","903","tutorial/task_familiarization_images/part 1/24_N160_K70_cliqueLeft_solution.PNG"," ","","","","","","","","",""
"true","false","[]","[]","[]","preload","31","473383","0.0-31.0","","","","","","","","","","","","",""
"","","","","","image-keyboard-response","32","481906","0.0-32.0","","8521","tutorial/task_familiarization_images/part 2/01_160_80_cliqueLeft_withFeedback_1.PNG"," ","","","","","","","","",""
"","","","","","image-keyboard-response","33","482877","0.0-33.0","","970","tutorial/task_familiarization_images/part 2/02_160_80_cliqueLeft_withFeedback_1.PNG"," ","","","","","","","","",""
"","","","","","image-keyboard-response","34","484473","0.0-34.0","","1595","tutorial/task_familiarization_images/part 2/03_160_80_cliqueLeft_withFeedback_3.PNG","arrowleft","","","","","","","","",""
"","","","","","image-keyboard-response","35","485036","0.0-35.0","","562","tutorial/task_familiarization_images/part 2/04_160_80_cliqueLeft_withFeedback_correct.PNG"," ","","","","","","","","",""
"","","","","","image-keyboard-response","36","487193","0.0-36.0","","2156","tutorial/task_familiarization_images/part 2/05_160_55_cliqueRight_withFeedback_1.PNG"," ","","","","","","","","",""
"","","","","","image-keyboard-response","37","487962","0.0-37.0","","763","tutorial/task_familiarization_images/part 2/06_160_55_cliqueRight_withFeedback_2.PNG"," ","","","","","","","","",""
"","","","","","image-keyboard-response","38","489233","0.0-38.0","","1270","tutorial/task_familiarization_images/part 2/07_160_55_cliqueRight_withFeedback_3.PNG","arrowright","","","","","","","","",""
"","","","","","image-keyboard-response","39","491538","0.0-39.0","","2304","tutorial/task_familiarization_images/part 2/08_160_55_cliqueRight_withFeedback_correct.PNG"," ","","","","","","","","",""
"","","","","","image-keyboard-response","40","493737","0.0-40.0","","2198","tutorial/task_familiarization_images/part 2/09_160_70_cliqueLeft_withFeedback_1.PNG"," ","","","","","","","","",""
"","","","","","image-keyboard-response","41","495511","0.0-41.0","","1773","tutorial/task_familiarization_images/part 2/10_160_70_cliqueLeft_withFeedback_2.PNG"," ","","","","","","","","",""
"","","","","","image-keyboard-response","42","496131","0.0-42.0","","618","tutorial/task_familiarization_images/part 2/11_160_70_cliqueLeft_withFeedback_3.PNG","arrowleft","","","","","","","","",""
"","","","","","image-keyboard-response","43","497524","0.0-43.0","","1392","tutorial/task_familiarization_images/part 2/12_160_70_cliqueLeft_withFeedback_correct.PNG"," ","","","","","","","","",""
"","","","","","survey-html-form","44","505746","0.0-44.0","","8209","","{""gender"":""female"",""age"":""24""}","","","","","","","","",""
"","","","","","instructions","45","507672","0.0-45.0","[{""page_index"":0,""viewing_time"":1924}]","1925","","","","","","","","","","",""
"true","","","","","fullscreen","46","519152","0.0-47.0","","","","","","","","","","","","",""
"","","","","","canvas-keyboard-response","47","531211","0.0-48.0-0.0-0.0","","10059","","arrowright","[158,893,898,450,151,805,345,120,306,984,530,216,529,840,262,833,532,914,292,959,587,664,491,51,737,594,436,366,986,622,169,193,79,615,244,354,246,92,272,990,792,518,820,255,389,445,395,35,455,586,130,363,313,814,358,785,911,465,607,403,979,412,574,515,838,923,753,236,287,677,860,726,888,252,878,796,633,484,425,293,171,339,259,449,47,977,949,562,963,782,619,973,962,702,397,173,359,276,136,978,324,604,128,312,133,501,663,531,551,538,198,683,338,6,985,748,747,520,429,140,470,764,502,213,113,942,200,181,223,892,184,8,706,150,700,298,218,382,480,331,537,286,724,21,26,992,768,544,580,426,512,197,595,605,854,489,402,396,639,971,132,430,575,307,442,103,476,155,896,446,458,229,687,879,125,461,974,581,347,349,464,948,482,121,676,717,279,263,209,143,15,659,179,394,902,754,863,849,991,632,25,510,720,433,675,625,797,584,265,636,830,775,486,869,122,111,452,936,33,481,577,799,239,144,835,681,947,414,62,99,865,931,772,710,384,320,142,669,847,903,899,759,10,154,182,333,266,864,49,859,745,631,164,558,211,707,623,274,803,738,548,392,509,311,187,280,496,791,643,528,336,667,250,63,493,69,585,411,314,837,709,993,165,678,431,362,386,70,74,776,423,915,330,348,688,224,334,344,106,24,777,932,175,831,4,589,254,668,885,283,60,901,241,206,385,557,59,356,168,490,981,644,342,880,517,257,719,601,929,438,871,808,440,694,952,408,46,424,925,448,189,118,856,546,343,832,20,277,894,29,950,934,543,699,701,983,695,780,834,729,845,37,439,998,591,95,443,267,308,248,958,194,399,583,935,11,722,576,290,258,146,459,256,240,52,822,638,42,401,924,522,866,492,97,853,441,226,145,45,419,201,159,858,281,790,787,127,824,232,273,365,507,516,765,2,107,526,360,112,933,725,5,661,755,110,614,18,75,81,284,302,404,105,269,523,810,322,38,367,28,225,170,109,195,778,760,98,249,167,451,989,789,698,432,610,12,692,969,104,475,247,355,565,773,945,801,988,651,101,703,357,779,647,670,210,85,124,844,571,190,592,549,188,876,906,178,376,233,926,135,927,161,123,315,970,836,14,746,191,620,980,600,54,56,506,78,511,742,955,499,842,697,995,960,818,761,666,147,674,828,391,32,749,794,555,712,598,514,637,407,807,505,596,73,564,498,300,50,624,743,58,387,855,323,566,593,27,848,353,415,736,881,352,364,954,416,222,946,40,36,162,961,547,704,3,428,758,513,751,825,7,873,129,199,316,597,390,0,268,839,305,756,172,781,883,34,275,261,153,131,570,539,572,552,231,185,260,965,460,653,329,957,728,671,468,714,72,55,655,208,918,690,740,141,590,388,545,67,766,721,368,909,1,115,841,982,968,944,87,641,234,22,285,953,186,735,862,102,648,634,606,630,997,227,890,913,665,846,93,802,410,684,379,657,291,967,930,940,71,203,508,823,649,427,245,533,166,897,116,473,23,938,793,744,733,806,852,61,134,467,679,645,582,487,912,253,337,406,891,418,527,174,138,691,413,84,693,887,732,851,417,895,556,578,278,108,627,999,303,603,43,176,730,251,685,381,877,611,148,96,214,626,826,525,196,608,454,230,77,289,350,53,811,635,535,157,937,398,180,964,221,420,783,48,689,889,731,767,715,686,541,739,447,618,763,309,296,672,321,202,375,16,900,204,588,904,456,817,752,628,711,784,457,238,920,617,332,882,472,821,939,68,237,149,540,819,769,346,718,319,521,975,88,579,89,76,119,504,288,372,243,326,727,383,351,242,57,716,393,800,996,943,771,453,137,919,377,91,13,361,205,815,369,908,843,215,495,916,972,857,192,500,613,886,550,616,328,373,471,30,976,567,646,559,327,90,553,812,485,642,295,872,478,884,264,994,827,483,304,282,469,177,612,497,310,80,65,910,434,444,905,409,217,875,662,9,870,378,804,734,723,297,183,941,660,951,139,477,31,813,494,340,786,713,341,83,462,114,86,705,435,371,921,422,554,41,741,874,966,317,652,561,563,774,44,788,100,318,673,708,220,816,294,163,405,928,621,503,850,573,207,17,301,680,762,82,907,658,534,868,437,64,270,299,536,370,987,463,380,524,599,421,602,126,466,152,66,325,829,917,94,696,867,560,922,542,861,474,160,212,770,219,271,335,235,656,650,117,19,629,156,609,228,682,640,519,798,374,488,956,795,569,654,809,750,757,39,479,568,400]","arrowright","","true","0","0","300","1000","[""0084_N1000_K0300_NOCLIQUE"",""0056_N1000_K0300_CLIQUE""]"
"","","","","","audio-keyboard-response","48","532294","0.0-48.0-0.0-1.0","","null","audio_feedback/right/coin01.mp3","null","","","","","0","0","300","1000","[""0084_N1000_K0300_NOCLIQUE"",""0056_N1000_K0300_CLIQUE""]"
"","","","","","canvas-keyboard-response","49","535545","0.0-49.0-0.0-0.0","","1221","","arrowleft","[193,979,559,795,210,904,262,929,33,799,790,170,189,63,347,492,230,568,477,324,593,494,886,431,103,645,951,390,243,554,710,46,311,489,620,623,959,268,253,855,589,342,534,1,906,602,867,835,183,38,451,438,584,316,717,265,506,379,693,548,162,604,567,546,450,830,810,464,310,259,385,294,651,433,187,540,920,164,237,238,532,389,124,9,82,273,261,126,58,803,458,499,761,938,327,57,108,544,44,306,819,674,414,985,953,704,723,314,369,456,914,482,7,290,794,863,749,363,335,201,708,976,307,923,212,89,783,362,140,75,679,814,264,474,788,724,851,889,754,518,401,550,209,687,946,121,192,885,871,891,19,630,611,62,408,870,98,924,752,480,270,181,978,510,974,952,635,406,40,445,984,701,553,394,530,366,683,597,119,32,420,295,440,329,563,218,22,531,356,822,634,182,303,861,778,41,454,684,777,304,850,323,735,476,981,768,668,828,774,917,678,15,359,726,947,266,659,195,109,179,442,77,857,641,467,786,848,700,660,549,47,918,697,281,18,69,671,368,787,344,718,740,619,308,231,146,54,576,573,973,579,960,541,215,297,52,956,284,511,639,178,452,169,954,296,992,246,17,277,736,937,765,118,766,102,70,388,194,685,502,843,613,161,557,497,267,30,854,361,341,99,31,397,91,428,896,208,150,880,590,419,637,298,232,533,156,319,276,627,689,200,110,667,185,912,142,505,447,644,158,334,76,426,632,396,949,174,206,287,475,272,805,145,719,398,696,288,771,51,163,274,407,153,446,56,430,116,465,588,330,772,643,793,982,473,802,614,5,739,874,320,175,823,760,656,421,648,907,776,948,460,572,965,846,28,556,16,313,538,340,481,400,375,941,856,410,269,872,868,817,624,832,234,836,730,633,688,677,866,797,625,847,936,199,621,122,725,236,466,483,879,869,862,878,636,528,0,592,756,690,804,525,49,780,928,523,782,881,642,478,325,702,940,60,958,801,727,581,104,147,966,71,983,299,757,328,221,66,439,353,601,345,74,291,405,955,24,8,570,144,337,322,673,166,416,133,737,806,470,432,240,527,61,283,55,742,899,336,387,698,638,728,574,93,811,582,669,908,542,437,371,171,932,598,666,286,338,80,48,117,562,800,374,411,931,997,88,729,143,220,791,500,449,198,14,413,395,292,42,970,565,225,945,913,807,585,484,154,196,721,354,522,901,905,596,360,545,148,90,722,743,188,350,315,551,422,92,539,655,606,753,586,332,987,662,839,130,994,424,131,254,23,293,617,699,897,547,789,300,365,833,382,20,53,849,594,603,493,43,21,275,560,441,944,714,381,123,127,731,991,507,172,628,998,747,815,152,813,971,580,622,457,961,831,136,159,646,309,894,773,377,282,650,95,884,434,501,386,355,890,68,509,939,443,605,2,529,235,242,177,744,106,741,840,649,302,496,211,796,352,27,279,733,114,759,348,448,429,403,934,680,490,631,263,764,149,967,444,852,409,128,468,87,137,977,745,963,402,351,135,575,115,26,141,661,716,245,455,233,808,376,184,608,748,217,239,892,228,86,860,629,864,664,138,250,151,491,552,219,139,486,785,244,640,903,986,769,989,504,692,495,107,824,922,45,13,933,841,157,113,865,916,318,676,512,412,3,488,224,73,526,682,599,64,392,909,423,317,762,712,120,755,995,516,943,462,607,191,876,706,503,213,285,691,587,537,921,610,993,675,770,895,471,751,859,915,50,333,312,469,670,101,331,703,911,709,25,713,882,167,37,367,583,190,888,571,358,615,535,357,609,536,681,616,84,364,249,902,893,247,657,779,980,672,957,543,711,252,10,436,784,750,508,654,898,600,555,415,809,301,517,834,734,373,838,999,816,612,812,186,746,180,173,591,925,935,197,129,378,205,257,758,418,11,207,204,826,837,883,339,346,763,12,487,132,112,479,83,461,821,278,227,289,658,694,226,85,36,877,111,229,919,738,513,498,942,566,577,524,561,665,818,825,829,767,256,820,927,732,792,663,900,485,326,134,842,707,399,280,105,521,910,168,798,4,383,160,321,216,972,652,647,564,393,425,964,595,35,222,248,720,380,578,65,453,94,165,519,686,950,372,203,845,463,715,72,78,97,202,926,873,858,34,459,781,155,6,775,990,827,271,255,349,100,853,96,520,79,975,930,223,176,427,214,988,305,996,962,370,968,67,59,29,417,515,435,39,343,653,472,569,618,384,391,251,844,969,514,81,887,626,241,558,260,695,258,705,875,404,125]","arrowleft","","true","0","1","300","1000","[""0017_N1000_K0300_CLIQUE"",""0017_N1000_K0300_NOCLIQUE""]"
"","","","","","audio-keyboard-response","50","536546","0.0-49.0-0.0-1.0","","null","audio_feedback/right/coin01.mp3","null","","","","","0","1","300","1000","[""0017_N1000_K0300_CLIQUE"",""0017_N1000_K0300_NOCLIQUE""]"
"","","","","","canvas-keyboard-response","51","539442","0.0-50.0-0.0-0.0","","789","","arrowleft","[894,785,330,22,265,320,639,367,702,463,973,471,588,893,993,211,829,811,28,933,525,538,954,620,251,539,472,164,480,757,645,399,823,616,656,851,555,660,860,486,429,691,937,56,985,318,880,938,19,122,335,719,828,924,914,160,368,840,339,453,10,559,51,280,497,740,503,104,103,705,763,701,861,983,986,420,305,794,93,207,962,491,394,91,658,212,675,905,842,602,573,979,319,281,213,507,7,791,583,302,417,751,197,858,803,546,659,16,764,308,55,784,618,424,347,776,389,406,300,940,108,328,892,901,569,686,593,355,426,896,734,778,252,428,307,613,236,240,669,890,5,77,414,20,729,826,697,393,935,925,631,235,244,159,82,256,214,345,903,88,621,800,626,598,314,270,413,684,911,793,651,987,151,528,172,755,694,276,202,635,722,864,862,191,149,919,64,672,233,910,246,638,185,39,607,9,325,141,997,254,59,360,687,748,797,467,321,502,385,552,258,661,496,587,333,944,371,27,216,295,407,989,604,606,199,513,517,667,636,774,760,80,268,678,477,139,608,349,148,129,738,443,32,293,885,391,24,641,476,941,111,487,982,79,830,170,400,165,891,563,845,926,832,203,866,533,266,759,109,818,494,854,640,677,836,412,589,123,73,470,716,769,682,637,464,642,317,499,50,750,904,932,15,403,795,473,827,712,732,853,655,725,83,372,60,600,271,43,498,889,545,825,654,87,683,144,416,699,648,646,187,819,707,773,681,888,358,847,929,726,558,99,441,664,768,532,843,46,374,288,908,78,485,208,695,359,198,817,468,395,492,163,287,365,875,180,783,781,754,886,316,357,107,980,876,950,489,510,560,907,310,689,955,419,334,923,313,820,275,915,375,727,849,475,649,529,158,802,999,126,128,848,156,680,717,436,948,306,994,708,21,96,124,292,765,671,435,482,94,815,340,35,996,762,504,350,963,601,737,138,995,176,869,511,690,846,568,906,105,89,324,189,512,232,787,865,327,526,542,210,209,721,230,692,810,425,182,2,541,882,577,415,508,421,241,115,739,12,488,136,298,250,761,397,243,179,322,976,178,411,898,445,650,479,278,257,49,201,356,351,224,366,291,625,930,792,540,868,63,31,521,120,874,788,169,193,596,897,277,153,458,127,615,289,140,85,749,603,990,234,299,11,834,142,884,946,899,591,863,975,518,586,936,520,69,967,747,685,523,562,578,401,382,505,822,332,223,580,95,76,290,881,242,422,611,622,353,974,698,662,75,939,624,86,551,969,565,427,294,248,595,965,481,741,392,838,812,991,196,285,711,121,134,174,341,423,643,564,183,348,444,352,388,465,439,408,514,466,222,378,456,724,766,506,449,653,283,62,821,379,384,442,673,390,363,483,718,629,362,106,364,902,376,775,137,599,381,535,273,440,173,872,361,432,572,81,943,537,493,644,133,386,614,147,309,752,336,771,524,696,585,155,262,887,856,571,226,135,42,850,119,634,567,282,516,801,679,581,118,728,966,387,396,584,478,610,553,746,592,219,132,490,192,162,574,1,839,157,961,54,195,58,731,34,971,968,782,799,168,772,255,402,370,311,215,446,437,777,231,450,509,452,0,576,984,931,206,469,143,873,14,953,377,438,326,913,239,713,92,566,457,952,934,253,590,260,259,70,460,663,970,816,130,730,344,790,315,263,455,813,617,547,65,33,48,554,229,942,410,323,67,101,221,735,495,329,44,3,37,459,612,338,74,501,744,570,40,736,859,548,261,733,247,878,186,404,609,597,522,18,117,867,714,519,220,454,977,61,835,98,756,870,354,218,267,527,116,90,312,831,114,957,928,303,112,633,430,556,296,676,47,264,992,945,742,549,431,796,927,269,25,981,743,852,579,474,301,723,877,561,145,706,879,575,628,190,462,895,920,807,947,814,29,461,177,959,550,167,912,188,804,398,798,623,715,102,200,806,515,166,900,557,844,700,786,909,113,175,66,150,630,582,227,805,279,949,100,833,972,922,433,857,26,131,665,272,841,745,72,331,343,451,720,171,674,4,767,855,916,418,531,709,960,194,181,97,670,657,703,36,342,627,666,978,41,383,808,225,184,30,204,632,52,405,536,652,594,921,758,237,448,45,668,286,605,704,373,484,17,918,824,530,837,543,956,693,53,434,380,38,753,780,917,958,346,447,688,500,770,161,217,68,988,789,284,647,998,205,337,125,146,809,619,951,534,710,84,57,964,249,152,871,297,544,304,228,238,13,883,110,23,245,274,154,71,8,369,779,409,6]","arrowleft","","true","0","2","267","1000","[""0025_N1000_K0267_CLIQUE"",""0015_N1000_K0267_NOCLIQUE""]"
"","","","","","audio-keyboard-response","52","540426","0.0-50.0-0.0-1.0","","null","audio_feedback/right/coin01.mp3","null","","","","","0","2","267","1000","[""0025_N1000_K0267_CLIQUE"",""0015_N1000_K0267_NOCLIQUE""]"
"","","","","","canvas-keyboard-response","53","544080","0.0-51.0-0.0-0.0","","1580","","arrowright","[475,973,398,836,303,857,972,52,340,706,691,584,988,794,733,402,893,452,976,116,751,224,449,582,381,417,372,576,93,986,86,140,996,920,765,640,300,446,64,994,202,854,779,936,496,225,828,792,762,685,439,782,745,783,132,431,493,291,558,412,28,882,182,979,51,627,207,97,778,952,201,483,649,418,888,969,453,575,891,835,695,58,789,807,820,181,616,516,923,844,411,358,169,35,791,17,761,749,289,38,420,59,528,67,732,98,895,30,24,545,873,369,643,518,650,651,757,319,916,262,570,681,630,832,771,193,964,330,900,513,45,20,962,55,995,967,887,817,571,361,786,601,642,53,607,33,155,821,50,837,141,666,536,290,641,346,492,934,585,915,572,134,776,500,260,637,344,978,512,674,498,659,482,721,768,212,325,233,515,276,254,736,958,22,734,707,32,7,108,366,118,235,819,442,13,73,551,305,485,997,693,530,517,206,813,816,632,368,609,3,840,293,304,448,894,870,263,937,75,970,373,908,450,664,569,698,320,471,574,112,299,90,690,533,1,143,509,670,526,775,612,838,604,803,977,227,171,719,629,91,897,121,138,905,384,686,363,718,556,750,382,827,546,713,770,948,343,239,824,731,317,759,451,298,222,473,338,120,375,631,981,622,229,188,271,99,10,243,935,357,896,912,867,703,4,991,892,490,885,147,435,550,241,881,436,829,724,806,814,203,332,152,506,709,847,447,39,924,667,907,610,955,740,387,599,799,890,256,529,459,278,841,352,313,839,926,942,245,312,834,746,12,830,568,425,158,538,788,194,396,739,700,699,497,70,845,187,959,283,520,327,106,508,6,424,172,889,179,755,114,954,316,210,502,36,985,153,297,309,168,443,318,671,634,488,773,798,555,495,628,825,88,484,157,606,541,883,801,611,928,614,364,966,808,255,843,49,18,588,380,848,288,159,85,286,688,438,524,383,272,742,403,566,266,655,19,129,730,399,167,940,370,185,440,669,605,69,479,103,578,793,476,323,220,196,465,60,374,684,282,400,458,595,469,175,328,511,226,720,54,501,324,910,871,275,27,426,135,117,863,971,131,463,787,190,42,29,729,586,658,474,192,944,573,846,560,927,280,922,992,270,0,236,81,960,523,956,603,941,945,644,441,717,772,809,678,92,367,930,535,257,455,205,917,486,209,525,499,993,218,949,735,652,872,856,874,421,752,393,315,230,466,378,527,349,968,414,21,248,259,456,726,987,633,292,696,921,668,204,613,269,621,216,851,797,589,760,184,428,84,592,177,694,975,237,982,470,800,311,265,434,48,115,165,477,737,682,656,744,89,406,376,904,335,2,708,909,195,532,386,353,823,663,596,714,427,454,902,163,164,281,100,234,764,963,657,200,137,859,974,635,899,423,228,123,565,142,125,242,284,139,980,180,37,409,728,150,715,249,984,101,491,310,215,301,355,756,354,408,531,14,199,489,743,615,119,161,416,253,866,639,178,876,624,11,379,918,672,295,268,219,191,581,833,462,351,638,911,784,753,480,264,587,47,598,461,306,347,580,329,914,392,83,247,790,818,77,781,46,626,711,989,983,151,68,174,868,126,467,754,590,990,308,507,623,950,938,689,395,130,562,957,8,136,557,251,723,802,852,285,542,124,661,704,879,716,445,842,294,160,951,946,855,104,563,154,662,548,87,186,710,401,858,785,860,567,274,620,602,522,831,961,544,929,687,214,341,419,880,40,111,273,365,579,539,683,231,82,619,804,594,591,422,468,554,244,727,197,333,636,223,413,766,337,339,796,850,107,769,109,176,208,457,198,78,665,95,105,94,680,537,61,62,23,939,617,261,31,763,359,296,127,481,675,906,903,494,430,145,712,767,654,113,877,43,350,26,722,170,774,397,919,183,217,16,240,472,692,552,71,321,173,564,302,356,998,534,433,514,76,404,57,44,250,391,429,258,102,521,377,505,128,407,862,385,267,805,41,9,697,932,679,410,444,432,394,326,34,487,758,148,748,279,543,189,925,464,913,238,853,780,342,144,741,390,553,864,795,277,953,221,898,96,777,460,577,653,5,322,559,547,80,822,625,360,861,25,146,122,79,810,878,166,600,334,74,747,597,15,875,608,884,676,811,561,246,738,331,211,510,725,965,66,901,232,287,405,415,162,673,156,56,213,389,549,647,645,702,593,65,648,388,307,252,540,345,519,943,931,865,583,947,705,618,371,348,933,677,110,646,336,437,999,503,362,72,815,849,826,478,886,504,63,314,869,133,701,660,812,149]","arrowright","","true","0","3","267","1000","[""0089_N1000_K0267_NOCLIQUE"",""0040_N1000_K0267_CLIQUE""]"
"","","","","","audio-keyboard-response","54","545067","0.0-51.0-0.0-1.0","","null","audio_feedback/right/coin01.mp3","null","","","","","0","3","267","1000","[""0089_N1000_K0267_NOCLIQUE"",""0040_N1000_K0267_CLIQUE""]"
"","","","","","canvas-keyboard-response","55","548016","0.0-52.0-0.0-0.0","","942","","arrowleft","[634,946,631,449,779,737,601,645,596,970,834,511,516,175,28,162,48,542,707,647,583,688,984,986,947,931,936,829,404,432,420,53,295,566,758,374,421,770,571,805,468,133,539,86,322,55,394,260,793,713,934,764,897,462,487,941,891,790,973,477,569,762,524,316,385,267,379,108,218,294,845,313,228,413,186,518,85,450,237,390,364,57,344,529,233,838,445,472,784,585,291,99,78,906,101,251,63,77,990,201,547,811,916,378,844,777,490,785,426,280,151,612,410,475,266,50,10,401,660,850,142,718,849,283,433,118,117,884,306,615,478,847,717,958,923,874,184,880,505,905,241,901,589,797,407,333,242,839,114,955,87,954,727,623,899,263,304,757,230,763,72,549,492,819,726,49,786,769,387,150,366,125,538,980,630,367,181,69,956,617,196,112,642,136,481,604,578,134,653,12,711,846,576,792,456,491,824,701,200,837,565,751,556,377,626,60,872,978,351,782,329,503,667,459,171,720,470,64,392,325,158,332,14,494,949,632,152,816,354,439,39,716,591,767,35,183,96,504,974,259,124,929,840,530,104,22,918,301,738,873,205,399,177,559,207,993,944,121,334,686,590,178,607,384,736,870,70,510,405,61,814,629,945,32,198,298,79,595,907,343,731,670,288,843,668,887,752,4,950,486,255,830,616,611,68,963,296,300,914,564,463,594,577,922,240,356,191,864,951,801,97,746,371,519,106,429,3,122,683,65,827,127,895,276,365,227,659,167,8,723,911,522,474,383,126,460,424,665,656,254,320,646,753,972,818,265,345,211,24,871,983,543,996,658,890,93,747,359,554,20,817,437,967,795,257,82,400,859,567,826,520,587,892,915,710,159,26,684,868,418,324,637,190,853,502,476,509,425,852,261,9,909,56,293,331,912,693,988,893,116,229,466,745,804,18,386,422,697,517,948,900,350,794,933,649,327,715,270,248,528,203,679,81,252,137,540,883,130,33,113,898,435,965,593,396,214,712,372,278,964,910,315,7,451,771,209,132,307,545,337,309,861,161,799,138,465,76,91,875,388,789,548,521,95,154,105,54,358,109,5,15,119,579,673,289,173,848,835,140,216,573,206,62,45,995,40,346,88,414,58,482,606,991,699,208,586,403,700,987,863,38,896,572,651,561,412,245,47,194,979,563,29,488,308,815,879,597,860,808,618,544,226,453,225,714,360,479,704,37,193,778,742,643,628,461,641,654,809,613,25,568,221,608,100,145,75,761,570,702,247,271,455,525,680,454,438,290,448,976,419,353,297,447,828,506,59,902,258,749,339,730,698,249,398,690,165,302,534,514,373,498,671,317,102,213,917,11,189,691,362,170,123,268,277,672,92,231,423,391,156,440,129,380,172,682,962,27,0,187,924,71,157,831,90,31,788,920,537,485,655,807,264,928,842,222,375,512,176,669,622,348,314,739,925,798,820,865,219,729,319,163,253,369,966,732,857,695,937,768,802,321,436,83,238,760,155,452,532,744,457,960,580,434,541,939,609,754,992,661,692,894,888,765,17,376,180,275,6,800,940,164,977,312,878,674,168,733,496,342,776,903,46,107,938,810,619,2,23,51,531,352,246,441,120,428,349,932,217,408,336,575,411,489,677,212,143,235,210,469,791,734,202,822,500,197,927,281,756,968,135,395,303,111,856,783,969,600,775,139,199,886,625,131,971,471,19,30,610,876,232,363,841,103,355,598,427,341,347,444,1,750,942,223,708,740,908,381,560,443,224,148,644,250,636,74,913,741,953,721,926,930,34,244,285,526,855,273,89,182,552,269,174,633,483,41,243,889,766,662,153,16,981,582,959,284,836,772,305,681,780,998,957,508,825,370,256,709,397,821,961,985,326,286,44,417,919,706,73,882,323,675,881,621,935,599,310,179,975,832,66,299,458,292,885,141,215,605,480,98,584,812,694,416,854,722,877,144,160,748,115,146,442,851,527,678,36,13,650,640,287,328,806,921,666,501,274,696,550,735,982,997,555,262,787,627,94,652,664,759,943,338,166,551,80,989,773,279,43,507,402,536,603,169,687,796,84,340,192,282,574,994,635,52,663,781,648,657,499,239,685,464,904,725,620,21,335,149,588,867,430,357,513,705,689,614,415,147,823,493,446,602,495,128,743,67,557,393,581,624,533,858,866,703,862,952,110,558,523,409,431,562,535,368,869,330,546,755,195,382,639,188,724,185,361,406,515,592,473,999,220,774,272,813,318,833,803,719,234,553,42,638,311,676,204,728,236,484,389,467,497]","arrowleft","","true","0","4","233","1000","[""0044_N1000_K0233_CLIQUE"",""0100_N1000_K0233_NOCLIQUE""]"
"","","","","","audio-keyboard-response","56","549006","0.0-52.0-0.0-1.0","","null","audio_feedback/right/coin01.mp3","null","","","","","0","4","233","1000","[""0044_N1000_K0233_CLIQUE"",""0100_N1000_K0233_NOCLIQUE""]"
"","","","","","canvas-keyboard-response","57","552068","0.0-53.0-0.0-0.0","","1127","","arrowright","[429,306,332,346,973,67,323,620,803,157,856,757,194,71,24,227,428,384,963,264,425,312,548,559,412,869,781,347,943,330,339,531,572,624,245,543,112,40,899,405,851,235,120,35,852,714,951,404,184,143,984,65,484,344,426,924,197,898,292,891,17,838,373,696,288,122,337,15,948,536,988,432,712,947,105,709,154,875,458,257,161,466,611,996,215,50,926,616,789,45,930,371,969,793,527,520,629,101,214,883,660,238,961,354,610,674,360,915,286,333,394,450,97,664,720,25,164,414,146,725,567,61,806,22,321,663,88,583,588,69,933,8,743,882,280,701,401,515,740,679,42,219,14,125,699,906,651,457,398,841,497,191,352,43,308,517,566,579,729,892,66,932,174,546,183,535,116,229,592,470,380,124,563,258,415,468,188,863,254,971,242,909,935,700,584,269,90,283,434,213,908,9,797,225,794,745,338,473,555,859,623,613,46,655,796,847,107,268,976,193,135,465,687,481,983,356,451,222,217,218,615,752,153,361,970,403,916,85,978,165,964,479,925,290,980,888,409,134,149,609,562,83,804,0,477,113,436,667,656,529,829,977,23,313,417,673,721,722,681,375,26,189,38,635,431,653,845,480,80,81,316,175,366,178,54,968,207,733,110,132,273,688,884,76,732,910,289,575,698,912,521,148,423,586,718,982,637,873,991,82,920,472,903,372,32,595,252,960,144,271,665,492,463,677,406,603,840,682,246,262,158,100,678,459,296,115,350,741,533,29,937,876,139,276,715,769,315,632,300,437,731,661,614,917,228,993,334,717,499,383,179,233,266,558,34,482,137,695,491,631,166,785,541,553,204,952,565,626,850,265,460,279,923,456,989,581,602,421,287,878,407,868,795,185,335,676,919,365,703,310,70,890,956,798,485,842,320,597,400,278,979,787,895,367,645,302,512,163,68,705,911,523,619,604,195,200,168,652,813,761,402,508,369,773,127,642,560,232,162,739,871,618,370,413,881,156,545,628,364,754,641,748,44,395,75,270,442,901,57,28,79,461,180,72,647,778,965,922,326,281,399,870,772,934,117,946,89,766,327,736,211,668,145,598,147,589,317,780,513,764,855,568,526,21,307,119,648,343,181,744,329,573,825,340,133,325,390,999,324,159,505,11,593,530,730,601,580,723,902,585,77,771,382,187,109,886,6,249,954,467,981,448,549,284,486,564,997,103,48,625,160,341,849,202,837,680,867,173,510,666,385,93,644,18,494,950,758,19,236,827,685,441,939,670,98,826,4,274,374,538,476,590,475,138,500,454,905,396,293,490,376,608,114,314,95,672,749,303,359,782,550,691,285,336,52,506,953,78,433,776,790,223,992,452,831,378,784,812,940,711,532,578,522,504,410,835,493,393,885,247,900,819,596,248,51,640,328,836,751,196,927,657,807,820,834,528,455,201,738,263,128,391,96,570,646,503,39,282,706,617,299,918,171,12,995,998,449,893,420,362,205,649,654,802,140,172,379,397,704,622,501,226,131,525,861,542,537,811,74,724,220,381,297,91,388,239,368,190,945,865,904,430,41,10,742,853,224,708,502,206,858,524,770,675,805,355,591,118,444,111,20,872,318,514,231,576,659,599,860,762,710,605,877,27,846,311,59,986,843,210,267,416,63,760,358,216,435,319,994,913,256,170,987,31,929,438,569,801,962,582,186,141,775,765,967,931,914,377,606,734,155,557,636,408,443,809,554,357,496,862,106,277,955,735,777,509,716,243,818,544,55,690,123,3,478,304,823,129,446,828,104,244,958,896,561,363,126,756,788,887,726,864,474,192,633,941,799,182,272,255,230,212,489,99,791,634,60,295,58,305,972,683,73,692,746,418,87,309,419,447,464,750,534,697,857,966,759,658,753,779,612,62,540,2,638,487,234,13,907,16,301,839,422,854,621,949,342,507,121,392,894,151,833,322,150,253,684,47,462,471,259,351,488,810,747,511,832,607,445,938,275,556,727,389,56,240,424,353,518,897,84,94,728,921,176,944,130,7,49,516,102,483,737,469,250,650,251,208,411,719,755,349,552,294,942,291,713,37,844,815,136,199,1,686,177,142,261,990,816,495,36,985,879,639,345,792,198,348,630,662,237,800,821,577,959,547,767,768,209,643,574,817,848,5,957,169,830,571,763,702,453,808,707,786,824,669,539,53,866,108,241,386,975,693,498,221,889,551,33,440,387,627,331,974,936,439,600,822,260,928,694,671,427,783,92,298,814,689,519,594,880,64,774,30,587,86,203,152,167,874]","arrowright","","true","0","5","233","1000","[""0071_N1000_K0233_NOCLIQUE"",""0064_N1000_K0233_CLIQUE""]"
"","","","","","audio-keyboard-response","58","553066","0.0-53.0-0.0-1.0","","null","audio_feedback/right/coin01.mp3","null","","","","","0","5","233","1000","[""0071_N1000_K0233_NOCLIQUE"",""0064_N1000_K0233_CLIQUE""]"
"","","","","","canvas-keyboard-response","59","555884","0.0-54.0-0.0-0.0","","825","","arrowright","[71,343,184,307,105,434,312,39,129,46,473,454,112,977,802,10,738,586,537,369,742,490,285,229,987,876,263,733,503,799,17,284,497,166,311,821,58,890,506,705,646,556,763,534,867,8,732,679,451,148,583,181,242,986,723,82,378,303,391,571,246,665,584,429,881,985,437,388,601,874,72,913,626,187,624,475,463,944,693,912,702,965,346,861,949,81,292,262,177,724,893,255,235,405,288,54,339,930,527,997,308,843,785,894,439,154,704,188,903,522,334,257,175,180,484,671,563,756,853,52,734,750,576,349,327,512,995,216,127,873,840,914,600,772,234,879,427,424,676,919,780,889,500,966,130,321,345,877,510,669,789,928,542,948,767,588,771,846,707,729,89,306,331,123,97,572,289,778,585,639,814,518,916,347,465,832,33,773,152,360,315,214,260,555,365,469,999,768,803,829,304,209,141,826,38,662,445,961,386,395,546,643,68,111,450,283,757,741,385,655,710,842,245,449,631,783,663,149,533,267,714,924,317,104,259,688,883,301,603,30,660,544,630,336,322,908,580,696,22,557,426,954,623,851,76,239,923,318,935,760,231,176,244,694,764,196,193,208,178,1,161,904,487,447,211,933,382,906,200,40,871,290,162,770,87,456,621,604,220,276,823,415,800,338,413,70,818,404,701,658,564,692,536,207,578,252,250,509,411,659,682,746,920,156,866,936,61,900,409,146,952,223,202,513,777,836,529,213,543,221,730,801,34,755,32,163,271,122,442,482,959,387,864,240,812,918,595,7,667,18,653,661,599,224,86,857,596,970,880,827,448,917,514,666,835,359,618,36,19,792,615,337,179,364,560,84,594,722,635,515,753,525,383,414,994,597,62,645,901,921,699,508,963,20,892,849,172,185,147,120,258,139,136,565,293,333,579,374,834,455,272,815,281,3,485,713,989,16,616,60,539,197,607,664,351,31,287,807,992,680,640,854,911,582,113,348,27,981,678,629,619,12,443,215,927,204,684,384,350,323,169,627,517,183,685,633,898,837,157,376,11,319,418,708,381,990,137,121,972,138,352,535,946,700,706,440,79,462,64,587,212,25,538,647,478,896,925,75,844,905,547,344,620,294,423,885,787,715,291,182,205,939,243,480,786,657,431,436,109,486,758,958,960,863,937,366,852,859,839,819,69,116,709,420,471,106,2,228,85,915,354,950,316,637,479,530,489,392,721,371,830,951,227,926,108,909,222,568,459,870,441,934,295,967,199,6,140,488,998,869,634,168,731,134,549,110,726,361,720,540,446,102,63,393,217,691,78,45,233,833,782,494,687,355,433,887,964,362,978,407,598,254,521,776,421,273,791,589,96,531,882,983,991,126,718,190,625,673,674,90,865,164,133,103,159,266,165,353,305,65,516,41,279,499,299,858,727,298,698,51,847,241,326,394,559,558,379,532,309,747,712,781,570,340,805,401,860,636,47,155,452,804,253,417,752,737,268,342,167,432,929,988,210,491,628,201,884,891,225,67,0,632,670,261,938,751,142,745,481,569,793,683,957,797,170,794,697,940,428,398,9,189,984,820,43,681,593,922,554,83,902,541,44,566,249,848,457,375,435,590,993,651,519,838,438,672,504,458,523,574,99,817,310,158,855,14,907,703,762,825,567,302,256,784,953,406,775,749,856,236,173,328,507,472,717,29,931,610,649,612,748,330,335,740,962,357,88,230,728,363,850,377,550,548,219,403,282,553,444,677,270,689,313,474,769,686,932,265,581,493,796,278,5,552,203,899,766,608,956,296,48,895,476,194,412,98,274,372,810,765,320,15,286,774,641,117,226,150,526,195,145,329,611,422,125,622,341,711,739,808,277,238,955,74,92,654,872,602,280,56,198,973,824,174,736,947,37,652,524,275,91,910,592,332,845,77,132,888,609,575,101,617,218,979,759,55,135,841,94,107,390,430,325,115,300,788,297,520,591,551,324,798,483,996,943,719,49,24,206,367,725,59,822,828,119,269,191,21,982,356,470,795,811,496,505,93,237,779,735,968,790,945,57,862,50,468,373,247,416,545,124,606,66,400,878,114,716,368,464,638,264,562,128,941,969,644,396,23,453,467,131,314,614,53,690,42,410,831,402,875,380,192,886,754,502,248,974,171,251,498,975,389,809,980,466,650,816,868,73,743,80,118,13,668,399,160,675,425,153,642,144,806,761,561,100,143,813,35,461,605,4,151,492,511,95,477,897,528,501,419,26,971,460,656,370,744,186,408,397,577,358,695,573,648,976,232,28,495,613,942]","arrowright","","true","0","6","217","1000","[""0016_N1000_K0217_NOCLIQUE"",""0024_N1000_K0217_CLIQUE""]"
"","","","","","audio-keyboard-response","60","556887","0.0-54.0-0.0-1.0","","null","audio_feedback/right/coin01.mp3","null","","","","","0","6","217","1000","[""0016_N1000_K0217_NOCLIQUE"",""0024_N1000_K0217_CLIQUE""]"
"","","","","","canvas-keyboard-response","61","559659","0.0-55.0-0.0-0.0","","814","","arrowleft","[388,317,43,873,248,627,36,152,390,14,568,300,136,546,926,728,796,373,574,802,32,146,239,53,155,440,978,458,308,726,157,964,655,996,495,468,827,776,898,591,504,70,240,243,739,653,193,595,577,319,42,669,836,500,658,801,147,424,986,89,54,876,419,617,352,397,547,98,622,93,316,561,409,133,361,110,954,172,67,77,771,531,828,360,851,434,357,44,755,811,965,344,528,12,689,294,103,335,594,51,345,107,190,290,888,508,250,321,981,777,487,404,646,526,883,682,127,597,142,383,641,584,116,267,225,184,814,829,683,768,937,775,956,510,220,406,268,56,188,148,525,375,631,433,117,840,497,437,370,553,371,109,466,821,707,928,249,263,177,411,75,46,226,752,86,649,933,990,134,557,799,223,605,700,852,71,585,285,417,191,651,50,797,153,570,322,535,544,139,724,947,412,899,721,21,556,106,910,154,306,196,593,804,706,230,652,447,757,834,837,277,671,490,566,741,310,615,815,514,589,971,186,770,672,362,711,341,486,691,738,376,170,872,749,906,476,575,233,68,751,227,92,64,176,602,667,6,73,737,274,596,607,795,45,405,194,957,515,506,623,999,754,18,381,181,729,846,386,624,364,461,59,870,472,922,432,517,569,809,835,280,475,760,542,313,789,84,692,611,980,211,343,131,328,204,520,989,333,118,197,128,953,244,426,703,356,237,790,787,604,62,949,435,410,688,260,960,499,927,940,701,619,242,391,991,518,286,210,586,496,301,993,853,115,938,684,372,298,747,603,911,320,541,438,83,330,355,180,962,389,699,657,331,348,679,977,915,995,7,932,807,583,55,762,778,111,998,288,113,439,100,368,600,891,847,168,867,677,149,484,997,58,723,173,842,793,436,399,690,527,882,467,366,156,377,231,2,555,716,685,396,727,271,206,571,105,662,395,722,633,783,445,245,892,346,262,634,879,855,78,501,904,478,26,866,710,276,11,338,171,452,952,509,719,205,884,878,349,165,24,979,299,60,800,845,825,307,272,650,229,350,121,334,608,258,861,774,314,200,744,112,473,897,241,668,636,97,80,676,15,969,369,871,61,893,901,247,680,864,27,503,216,327,992,905,687,894,213,16,13,252,144,203,456,47,903,764,673,987,963,195,961,976,414,856,85,733,924,99,560,803,881,984,702,169,185,459,967,460,209,201,648,130,660,675,232,477,880,235,183,425,512,513,798,681,674,507,599,123,421,455,637,945,382,929,921,635,670,162,985,479,609,137,5,588,712,887,392,942,378,283,374,265,850,794,841,278,735,480,620,428,750,823,580,441,255,481,601,463,94,323,464,443,748,931,913,178,212,324,449,854,661,219,537,166,31,975,498,511,564,806,638,709,877,167,632,973,645,420,958,124,813,994,791,833,228,380,972,505,950,955,907,37,559,763,266,318,695,816,908,189,874,592,8,256,606,251,30,730,941,839,431,805,296,354,644,488,563,516,715,538,920,532,896,902,150,470,403,616,337,353,943,946,890,630,756,289,618,678,29,339,610,558,221,923,521,740,385,326,418,1,779,959,120,780,429,862,843,82,654,838,40,394,785,524,909,613,858,666,38,590,824,358,522,416,291,261,826,900,19,736,49,482,786,951,74,664,742,539,312,351,761,304,773,935,408,214,28,119,415,925,552,309,643,621,543,393,656,718,164,772,407,303,725,812,427,696,282,817,988,625,540,579,647,108,734,502,384,562,163,968,88,340,34,533,745,145,65,859,567,810,161,222,708,41,79,944,199,536,573,857,284,550,918,365,485,765,104,917,202,769,135,224,402,886,895,912,175,287,820,860,102,686,720,33,246,578,494,66,451,293,238,259,72,101,640,694,665,462,215,919,140,254,401,329,629,3,423,639,76,48,970,914,63,788,10,551,832,844,22,129,530,974,875,257,830,192,87,454,457,693,831,523,413,143,35,91,491,275,545,387,698,554,628,125,848,236,471,39,325,20,493,444,808,469,889,174,158,930,614,782,626,450,281,448,114,96,347,581,565,234,849,663,179,758,379,269,465,863,598,784,422,548,982,400,766,95,792,759,52,865,4,582,270,612,489,529,442,141,160,453,297,549,367,122,9,315,819,159,642,869,151,704,519,885,279,17,767,332,23,0,363,731,948,217,534,936,25,576,983,336,939,966,398,292,572,295,57,430,253,659,714,781,311,934,717,305,743,90,446,342,264,746,81,474,483,198,138,132,713,126,187,587,753,492,868,359,818,208,822,182,207,697,302,916,218,732,273,705,69]","arrowleft","","true","0","7","217","1000","[""0042_N1000_K0217_CLIQUE"",""0067_N1000_K0217_NOCLIQUE""]"
"","","","","","audio-keyboard-response","62","560646","0.0-55.0-0.0-1.0","","null","audio_feedback/right/coin01.mp3","null","","","","","0","7","217","1000","[""0042_N1000_K0217_CLIQUE"",""0067_N1000_K0217_NOCLIQUE""]"
"","","","","","canvas-keyboard-response","63","563818","0.0-56.0-0.0-0.0","","1038","","arrowleft","[816,17,31,231,960,869,808,504,955,418,922,50,642,505,536,818,674,585,561,758,58,946,223,763,346,445,969,836,907,483,298,636,141,479,526,601,748,407,429,42,406,152,76,956,886,202,235,116,590,339,382,541,115,602,328,546,465,871,961,228,497,512,880,549,221,191,248,160,229,699,574,712,463,949,894,114,727,792,405,528,824,358,414,72,121,286,710,896,388,944,733,689,911,874,986,102,396,247,251,995,299,671,750,622,950,934,117,296,85,88,351,856,196,367,588,647,794,846,303,841,610,854,959,156,239,302,162,319,521,539,829,457,772,45,862,669,254,580,902,913,571,725,524,947,399,864,277,218,314,502,804,963,344,932,99,250,360,939,889,138,357,701,216,370,173,591,493,144,738,132,498,437,112,782,427,348,940,714,190,646,122,766,179,522,381,759,312,558,624,776,786,844,516,334,409,662,279,432,84,444,670,542,244,595,411,606,983,663,238,194,603,451,600,876,330,113,71,485,623,830,48,993,685,95,201,350,369,605,720,450,372,125,583,389,650,618,482,34,607,711,322,821,544,729,747,547,256,899,562,260,884,33,13,44,70,410,887,103,931,681,578,189,383,90,958,110,352,661,916,133,548,394,273,23,384,718,363,448,337,987,780,224,905,964,391,123,139,945,128,567,6,21,716,810,686,281,454,760,426,214,917,161,645,481,86,807,833,680,800,271,888,573,7,660,129,741,627,267,742,14,175,326,519,55,839,242,859,180,891,857,131,168,900,65,555,640,456,282,336,285,737,356,433,739,203,466,38,828,914,186,329,693,653,649,39,566,644,198,834,529,470,589,657,83,966,648,211,289,898,347,991,930,929,877,398,870,169,170,694,957,784,769,771,778,270,343,207,631,230,933,875,146,878,135,488,921,118,278,19,467,706,145,793,724,469,597,106,36,275,47,259,60,486,335,301,434,978,847,187,209,489,637,265,57,477,774,503,628,338,192,570,630,261,9,927,611,143,28,658,594,756,532,883,49,59,354,609,274,545,276,811,68,182,105,272,421,172,233,380,625,29,5,684,74,722,867,599,109,212,598,345,100,164,317,757,858,324,130,476,761,692,461,419,157,954,972,46,150,515,517,78,608,890,745,284,332,374,752,664,556,446,56,665,977,428,779,460,119,0,257,440,732,126,240,791,484,652,531,373,820,92,551,666,814,195,999,974,24,696,188,523,226,359,404,295,935,802,805,300,617,417,155,981,641,89,912,355,53,375,376,227,362,496,199,315,596,984,436,340,988,865,79,550,69,41,801,225,815,746,413,576,704,377,654,866,817,812,937,581,904,288,459,25,167,707,501,77,717,553,736,543,134,395,468,490,895,855,565,159,323,452,104,735,822,892,835,292,614,518,12,26,787,832,30,27,982,219,283,525,321,120,506,54,464,320,587,293,651,127,458,390,478,552,480,510,366,994,416,682,258,527,941,643,569,633,232,177,764,728,592,475,893,713,560,318,823,63,2,938,604,936,825,4,136,15,582,971,371,447,361,16,783,559,508,387,20,852,690,976,799,530,903,62,269,101,698,222,861,965,151,11,61,255,795,765,513,154,997,165,111,676,719,424,208,626,93,975,980,638,925,679,97,639,721,431,672,730,767,700,797,397,297,584,970,575,705,234,850,401,634,540,897,635,385,924,3,968,306,789,744,768,723,918,709,708,928,777,213,249,809,803,8,294,246,327,280,40,673,520,153,342,108,471,263,798,149,989,881,953,66,308,909,204,751,262,509,842,873,441,703,495,174,749,266,243,197,923,908,629,840,253,462,185,998,304,402,872,781,845,992,425,906,236,140,838,586,237,755,415,422,124,675,210,702,951,305,788,848,64,577,98,882,967,400,740,22,420,492,973,67,819,564,87,813,514,843,325,494,75,948,790,449,365,73,849,507,996,697,753,91,474,43,430,443,393,80,487,183,311,743,442,678,901,403,364,313,621,796,695,107,853,472,52,353,731,656,952,193,1,499,827,137,942,688,291,762,473,659,775,831,785,511,178,535,171,500,533,341,593,919,147,378,268,37,619,142,408,863,200,687,438,677,18,554,962,632,538,96,885,252,726,613,773,412,667,668,860,537,943,176,572,620,879,612,926,81,439,568,35,615,206,534,10,82,455,368,386,245,349,920,655,94,563,163,557,290,616,683,51,331,181,851,379,423,579,910,453,309,310,220,491,32,990,806,166,307,770,734,148,215,691,287,915,985,435,217,205,837,264,316,754,184,979,158,241,392,826,333,715,868]","arrowleft","","true","0","8","200","1000","[""0020_N1000_K0200_CLIQUE"",""0081_N1000_K0200_NOCLIQUE""]"
"","","","","","audio-keyboard-response","64","564807","0.0-56.0-0.0-1.0","","null","audio_feedback/right/coin01.mp3","null","","","","","0","8","200","1000","[""0020_N1000_K0200_CLIQUE"",""0081_N1000_K0200_NOCLIQUE""]"
"","","","","","canvas-keyboard-response","65","567828","0.0-57.0-0.0-0.0","","848","","arrowleft","[264,545,529,249,687,740,354,286,884,905,494,85,693,266,521,572,16,100,161,12,531,496,129,493,500,54,798,783,931,77,305,175,443,721,297,697,881,842,760,965,528,150,378,862,11,648,19,704,155,114,59,171,349,869,674,935,472,48,456,417,778,770,694,68,594,888,142,181,590,725,992,228,172,800,735,642,463,186,386,377,270,399,279,627,338,314,963,932,246,527,644,903,919,238,376,135,688,505,1,793,514,583,415,499,512,858,873,362,69,147,909,754,383,723,882,593,275,366,746,576,300,283,232,891,154,58,968,661,567,914,282,218,526,915,689,953,970,272,43,316,630,839,832,201,299,104,296,17,212,918,488,321,664,470,699,552,382,967,138,900,822,695,928,952,471,540,990,866,738,610,183,578,651,290,961,105,481,324,224,410,791,911,109,312,904,757,287,346,163,781,615,320,179,361,515,309,258,209,440,944,811,475,52,248,460,130,787,979,484,421,899,902,134,173,353,683,72,708,759,495,98,308,184,39,685,976,597,422,829,964,441,732,215,863,433,535,763,668,396,908,420,843,579,855,276,984,120,980,167,379,223,57,188,236,92,388,357,726,108,994,295,350,191,856,241,278,467,718,288,777,750,244,14,850,845,508,745,398,76,975,380,144,15,103,449,55,860,263,196,83,256,333,375,281,556,483,736,622,46,160,240,90,88,80,790,50,18,696,684,450,524,329,517,983,591,574,446,565,581,874,169,586,987,543,956,802,618,148,716,950,227,243,235,541,128,700,180,27,211,877,178,429,608,765,298,625,523,393,691,598,205,711,371,342,681,387,220,589,812,954,679,461,810,584,555,546,199,920,741,813,617,452,101,239,121,605,658,426,408,703,330,192,317,564,550,666,789,647,854,819,717,30,838,906,115,788,612,200,643,930,217,587,775,93,551,124,675,351,532,166,792,548,119,33,553,922,465,323,835,341,939,418,292,84,837,596,504,143,557,193,82,395,439,749,156,206,6,352,79,600,568,369,942,140,859,916,506,311,509,981,974,731,702,814,969,132,727,177,318,389,355,604,756,487,623,126,75,64,780,559,13,672,70,231,289,325,962,451,394,923,857,808,607,444,273,864,73,724,4,706,937,772,174,966,948,776,836,977,455,344,331,337,327,743,285,921,125,411,852,117,947,626,801,486,752,733,890,722,24,821,815,51,667,665,929,670,291,81,368,879,157,799,406,97,887,830,995,767,359,650,631,8,951,774,820,758,991,805,671,848,416,938,886,677,490,709,624,897,582,927,35,537,47,573,742,372,66,751,613,910,271,797,489,257,428,447,619,946,570,336,219,413,407,424,633,538,641,592,149,303,748,294,764,867,998,606,629,111,110,926,137,707,237,960,164,940,203,445,310,458,959,893,86,469,705,226,221,358,245,106,277,293,265,569,197,251,214,806,986,230,491,176,901,145,659,673,729,7,611,159,313,755,507,831,654,880,502,497,476,335,74,513,827,719,542,988,268,889,917,636,871,307,67,25,20,614,753,734,585,21,365,462,737,99,434,22,38,60,479,492,255,833,637,367,425,442,601,823,364,602,423,146,360,516,885,913,385,739,621,892,5,89,153,26,603,816,170,868,189,616,466,95,468,660,563,525,840,482,63,534,997,152,657,373,261,412,875,42,828,328,818,996,56,713,438,448,773,844,628,122,595,204,392,436,580,457,678,391,280,728,768,61,185,972,10,571,207,747,895,202,786,37,284,405,53,435,464,397,437,234,933,851,32,769,999,894,807,222,796,957,91,949,898,356,381,730,945,340,698,530,9,131,762,714,453,510,168,646,985,187,254,274,971,242,680,878,141,676,390,635,638,31,345,575,649,656,116,973,36,400,779,853,208,28,599,955,210,23,454,260,639,165,712,632,653,118,876,539,519,896,190,123,127,78,334,907,348,96,533,943,834,478,690,640,136,663,473,662,865,370,872,213,934,766,652,645,162,459,322,477,404,302,62,139,133,883,744,430,2,795,102,403,71,912,41,262,253,40,989,870,94,419,536,401,151,554,710,343,784,363,804,326,402,498,925,269,3,306,384,588,958,577,825,824,936,409,560,259,45,112,620,520,195,315,701,841,761,849,501,785,518,782,158,198,0,669,794,941,267,503,682,474,229,544,511,978,431,319,522,846,225,332,993,566,720,847,339,924,803,233,715,182,826,301,771,304,374,427,982,194,480,414,29,44,216,252,87,485,655,686,561,609,250,809,247,634,692,817,558,432,107,562,65,549,49,347,113,861,34,547]","arrowleft","","true","0","9","200","1000","[""0028_N1000_K0200_CLIQUE"",""0046_N1000_K0200_NOCLIQUE""]"
"","","","","","audio-keyboard-response","66","568826","0.0-57.0-0.0-1.0","","null","audio_feedback/right/coin01.mp3","null","","","","","0","9","200","1000","[""0028_N1000_K0200_CLIQUE"",""0046_N1000_K0200_NOCLIQUE""]"
"","","","","","canvas-keyboard-response","67","574323","0.0-58.0-0.0-0.0","","3504",""," ","[477,681,592,71,733,412,506,245,758,131,924,424,192,634,809,845,380,754,227,731,160,154,850,615,496,382,108,829,146,585,640,449,250,339,941,783,302,96,984,781,761,780,40,788,637,419,982,464,420,348,705,739,973,596,608,935,966,173,383,86,458,437,133,722,334,580,643,73,963,927,375,931,607,60,313,745,514,62,750,416,876,743,188,345,169,427,317,450,272,841,726,244,0,697,97,633,853,712,675,92,367,505,776,856,397,861,442,938,732,473,586,724,479,341,246,208,796,487,942,747,725,544,581,689,929,694,993,759,913,901,702,965,511,431,177,975,265,36,621,87,773,849,565,368,628,360,128,560,125,516,88,396,930,395,895,186,582,755,889,33,415,624,552,349,235,764,795,933,999,805,949,858,520,103,778,183,294,273,54,969,57,932,709,630,191,129,280,480,20,641,886,504,646,818,414,985,134,737,587,943,194,710,625,619,377,682,967,242,84,413,3,159,63,612,46,207,203,229,567,403,848,902,422,31,101,69,266,176,161,151,252,459,617,346,616,322,741,555,319,926,189,197,221,882,534,15,363,329,117,955,481,309,448,717,752,563,981,312,801,842,894,549,389,45,469,529,811,24,258,27,990,426,812,288,756,436,779,683,654,425,81,163,388,838,538,562,884,172,310,897,271,746,411,354,614,770,211,525,917,39,142,519,874,905,914,610,609,735,281,386,523,524,401,950,557,333,509,210,857,815,649,447,952,264,286,51,910,115,304,52,26,650,320,602,421,719,204,875,409,34,355,446,105,909,980,470,352,854,4,217,305,575,937,647,543,283,66,475,308,55,989,43,571,440,79,1,738,373,915,916,137,690,357,590,140,903,226,500,711,522,855,800,394,127,337,883,996,50,880,828,904,489,187,869,201,912,428,238,653,753,378,570,198,576,528,833,147,817,748,332,315,977,491,215,830,919,807,452,9,508,276,358,143,600,836,899,598,336,232,714,572,351,976,405,566,577,953,636,38,13,863,478,497,199,533,29,835,613,594,298,53,166,399,37,622,291,730,553,740,359,267,698,550,251,611,42,531,920,925,535,960,343,839,995,301,629,295,721,556,988,956,718,282,665,644,804,727,49,41,353,104,890,17,222,663,782,940,468,495,122,700,847,402,548,559,290,327,323,494,356,958,994,639,918,418,318,181,790,285,417,821,239,879,537,430,91,462,658,517,655,10,94,870,114,445,825,693,393,123,195,604,432,257,734,48,259,209,806,564,573,803,645,316,391,728,864,374,970,99,699,939,826,423,530,135,720,59,501,936,216,102,67,502,772,767,987,451,205,185,662,370,664,510,692,568,296,325,85,212,321,666,372,132,284,551,877,174,762,652,454,113,618,303,599,627,28,515,78,240,736,816,23,536,667,64,361,150,236,170,314,579,379,768,364,991,834,202,944,757,7,167,851,591,241,455,119,141,277,278,785,490,695,922,603,61,751,723,293,457,638,763,153,178,330,797,765,885,691,498,230,248,299,789,116,206,545,2,606,512,948,819,865,213,471,961,964,822,263,65,794,121,946,461,742,12,70,792,791,168,657,80,224,381,111,685,787,467,255,486,75,696,887,292,126,171,679,814,873,438,112,190,972,593,441,408,371,777,507,951,398,324,261,677,893,997,661,362,892,392,5,93,934,808,300,526,262,476,130,434,971,840,58,846,900,631,460,589,35,158,44,484,583,193,482,407,218,558,947,231,687,827,376,786,978,974,923,435,274,306,30,584,669,707,635,429,350,676,775,47,331,871,89,145,11,365,152,660,642,390,597,802,541,249,862,223,6,706,542,823,466,270,554,983,701,678,493,254,311,793,234,672,107,148,269,578,668,684,279,898,175,21,868,832,335,813,492,200,957,921,384,766,521,527,648,908,546,547,703,532,626,32,228,118,56,453,179,72,867,588,979,674,620,287,488,831,716,601,98,843,247,872,225,256,260,100,82,68,243,686,219,289,165,237,954,784,220,182,704,483,366,400,18,474,671,540,90,149,574,518,799,860,136,196,485,463,410,110,837,297,569,820,688,713,945,157,605,906,444,715,77,385,443,670,561,878,406,968,774,155,180,992,896,74,433,959,998,25,771,760,14,124,810,138,472,632,852,928,623,659,439,344,744,456,404,109,907,673,749,387,503,8,144,233,369,986,214,76,326,268,16,465,881,328,595,651,866,340,275,338,656,156,120,184,513,83,22,824,888,891,680,911,769,139,95,162,253,499,19,729,307,962,342,844,798,859,539,164,106,347,708]","arrowright","","","0","10","183","1000","[""0040_N1000_K0183_NOCLIQUE"",""0027_N1000_K0183_CLIQUE""]"
"","","","","","audio-keyboard-response","68","575427","0.0-58.0-0.0-1.0","","null","audio_feedback/shuffles/shuffle01.mp3","null","","","","","0","10","183","1000","[""0040_N1000_K0183_NOCLIQUE"",""0027_N1000_K0183_CLIQUE""]"
"","","","","","canvas-keyboard-response","69","580205","0.0-58.1-0.1-0.1","","2747","","arrowright","[537,989,530,549,276,425,460,721,20,401,545,220,204,569,614,18,471,142,96,774,767,158,429,683,654,743,588,360,362,444,967,759,635,914,118,559,672,975,520,82,793,623,966,794,274,954,79,702,369,703,554,855,906,664,211,318,95,356,755,388,732,933,180,473,278,599,224,26,719,610,887,880,853,969,135,991,817,83,0,563,941,349,772,175,292,76,598,212,93,618,565,803,465,828,516,470,832,60,894,804,602,416,764,698,624,945,467,259,400,228,856,106,548,49,521,596,238,69,785,148,782,775,822,814,913,122,386,786,738,143,479,160,992,88,974,156,795,617,818,494,38,605,384,648,742,394,956,437,787,939,3,531,260,123,920,681,396,986,953,133,850,630,10,659,918,341,625,996,19,675,251,877,78,375,408,466,252,723,949,487,929,298,31,867,547,546,300,768,61,422,268,987,797,340,289,280,364,399,304,994,838,323,962,66,497,72,52,641,233,266,42,161,560,523,25,604,587,178,851,11,483,332,405,110,892,511,864,924,241,765,741,137,476,183,193,571,370,236,140,314,308,165,783,57,435,897,334,528,383,505,896,612,489,798,217,398,287,762,616,203,498,607,226,932,235,662,186,141,32,955,488,291,272,925,947,56,714,936,829,271,124,116,337,92,773,730,584,758,680,414,208,176,724,71,16,788,561,480,1,484,299,345,461,481,866,615,54,905,105,863,552,574,120,685,766,902,33,745,97,999,264,231,972,801,313,937,857,302,790,642,43,697,891,270,821,827,715,85,981,753,813,73,255,570,620,983,631,779,771,700,519,796,39,871,218,202,780,950,833,667,627,677,812,591,164,976,673,873,86,430,167,825,963,65,134,903,649,835,254,754,661,526,935,114,601,995,413,748,694,611,448,463,335,132,506,475,5,75,352,885,841,357,154,162,504,752,13,807,311,207,910,904,973,507,686,331,952,129,319,911,64,190,45,594,728,285,597,51,199,227,474,638,668,831,744,826,651,4,695,34,98,253,234,109,970,609,590,684,493,295,789,303,201,709,858,185,243,222,606,426,682,556,535,395,379,213,727,791,420,339,194,777,502,844,704,200,908,883,126,710,539,325,490,366,690,262,50,410,462,329,876,532,472,898,436,845,839,41,102,931,44,317,206,94,100,198,865,998,811,195,343,944,478,219,781,150,534,350,373,551,172,363,171,104,449,277,708,573,647,882,890,595,533,131,731,391,633,128,182,15,943,53,861,613,365,406,477,70,232,917,666,572,901,750,735,221,459,692,860,485,927,655,701,309,113,412,457,468,184,242,809,29,589,958,895,749,381,115,875,946,288,282,816,464,434,907,575,799,881,555,922,281,392,84,63,48,215,784,874,230,250,68,14,181,643,739,191,344,423,306,940,421,393,107,639,273,982,67,747,407,117,619,378,644,121,179,805,756,112,740,717,348,542,177,17,355,336,157,40,660,402,451,427,689,562,674,453,632,301,842,346,951,428,23,663,146,517,948,693,229,582,912,258,716,687,36,558,637,244,351,691,645,870,652,385,119,763,646,312,581,854,568,374,621,347,296,37,354,792,403,837,583,757,592,111,240,720,564,990,283,496,824,503,214,964,868,510,330,544,125,840,324,746,921,248,387,411,930,566,529,197,245,820,367,543,315,469,579,711,327,656,500,316,443,187,441,321,862,512,450,501,593,971,729,353,74,957,261,508,361,640,879,653,87,808,495,670,163,586,830,91,263,438,257,705,760,372,397,899,153,380,988,55,442,847,62,823,628,770,872,30,81,968,371,934,482,101,688,985,456,249,815,433,888,778,458,725,170,149,320,358,928,915,139,418,658,977,338,210,486,147,843,415,326,305,455,567,409,246,538,24,603,657,8,145,650,103,959,540,265,389,893,938,553,557,297,626,130,452,806,58,846,852,447,669,2,99,144,491,108,27,622,77,515,718,514,513,404,307,671,446,585,900,665,819,580,737,751,712,424,919,294,525,577,432,726,155,237,909,159,576,634,382,734,492,541,961,736,454,239,848,859,926,59,923,256,46,267,884,550,9,445,499,188,21,849,205,942,608,12,980,600,151,518,216,676,196,223,524,707,28,225,377,359,836,152,322,174,275,22,733,247,699,978,722,7,997,168,578,810,439,993,679,886,35,869,284,90,419,169,802,536,269,960,166,965,376,136,878,333,769,286,834,310,417,127,522,979,80,89,293,916,328,509,173,189,713,192,209,696,440,47,776,706,290,761,527,390,138,889,279,678,342,6,636,629,431,800,368,984]","arrowright","","true","0","10","183","1000","[""0040_N1000_K0183_NOCLIQUE"",""0027_N1000_K0183_CLIQUE""]"
"","","","","","audio-keyboard-response","70","581207","0.0-58.1-0.1-1.1","","null","audio_feedback/right/coin01.mp3","null","","","","","0","10","183","1000","[""0040_N1000_K0183_NOCLIQUE"",""0027_N1000_K0183_CLIQUE""]"
"","","","","","canvas-keyboard-response","71","584472","0.0-59.0-0.0-0.0","","1157","","arrowright","[263,364,541,786,463,908,925,497,70,704,3,814,409,13,227,217,773,480,504,648,812,880,153,536,527,281,15,71,984,767,916,149,518,252,61,759,36,311,178,157,807,391,434,526,613,622,279,316,647,60,660,156,235,658,94,838,84,624,458,871,716,802,796,377,83,304,231,386,717,582,642,42,103,454,850,233,566,614,136,52,425,259,450,202,378,621,440,395,612,416,633,349,343,302,284,605,843,190,934,962,221,45,713,141,187,944,652,876,643,441,517,41,554,650,977,753,341,50,797,506,21,65,86,539,606,271,741,762,609,936,179,867,435,214,681,331,826,552,688,897,361,91,914,291,472,860,625,238,147,97,537,564,296,577,194,219,706,851,593,665,976,174,662,562,453,666,73,939,790,78,667,927,58,567,244,286,336,764,799,137,407,452,9,515,424,239,403,691,460,768,122,485,795,524,547,709,852,161,474,683,960,20,596,743,85,792,998,563,945,379,830,314,659,111,895,193,315,402,301,623,254,414,801,961,885,634,519,265,630,821,981,342,954,176,597,884,882,89,280,585,544,419,334,932,645,664,909,532,829,810,731,63,322,779,269,730,418,371,431,789,820,33,384,747,619,902,17,503,800,679,894,305,189,330,406,43,994,983,350,426,943,590,382,898,921,295,608,999,635,571,508,411,313,578,79,392,299,381,701,637,965,22,808,956,124,654,856,601,236,366,875,116,556,669,535,697,118,199,283,266,323,569,489,971,866,374,758,413,525,35,509,404,951,857,714,243,725,251,362,133,469,958,695,145,465,575,393,34,417,135,661,248,44,941,561,863,628,689,5,865,220,919,292,105,751,459,975,844,580,969,59,285,607,354,632,750,854,173,98,505,241,610,200,777,245,185,757,69,574,163,910,306,993,165,933,191,339,785,870,8,346,823,841,595,833,490,616,985,727,99,457,96,528,543,835,129,444,423,387,530,47,376,476,131,811,957,204,468,128,114,996,134,588,106,479,581,18,119,54,626,493,375,229,276,160,881,964,604,40,997,687,989,356,188,442,338,831,671,721,373,196,570,104,120,746,694,275,749,874,720,38,372,864,917,127,329,784,223,599,920,353,260,692,422,523,822,267,475,432,488,335,675,56,591,883,521,500,255,421,394,216,825,166,512,142,744,115,290,806,787,102,48,672,899,755,639,466,358,986,439,952,298,905,699,380,347,805,237,445,101,711,7,288,208,774,913,685,222,0,572,345,696,151,332,602,558,803,809,818,842,359,839,175,234,75,549,739,333,991,39,891,540,776,992,510,326,180,926,28,548,988,24,702,766,186,560,256,979,579,464,498,230,140,568,492,847,620,385,531,64,682,30,686,770,303,367,676,551,112,511,325,225,516,680,355,836,310,309,257,390,477,555,942,205,125,181,53,973,37,429,162,272,461,859,924,449,150,430,294,832,732,82,573,308,148,911,437,363,360,636,499,968,23,327,481,587,389,995,834,761,143,206,935,615,974,853,412,670,270,653,617,928,232,14,491,2,324,903,940,25,4,448,723,365,937,668,707,698,592,980,631,855,132,340,959,896,224,892,705,368,321,317,467,733,471,182,745,929,546,638,126,11,677,946,529,80,756,955,553,482,121,195,678,470,369,791,210,848,228,963,947,879,930,396,726,318,92,95,154,68,923,982,261,663,483,520,559,763,197,576,307,502,397,734,771,550,328,93,873,533,287,922,337,486,203,970,862,618,159,46,215,507,953,987,765,674,433,144,712,788,538,655,827,289,657,501,646,718,146,76,399,798,247,32,81,264,455,427,170,584,901,778,629,735,738,737,769,312,918,357,804,487,514,915,12,640,824,742,209,900,123,348,90,262,87,845,513,110,858,690,817,213,152,748,451,651,586,972,27,282,410,55,109,88,990,877,108,522,649,644,31,155,780,872,949,177,167,398,878,907,268,320,211,627,218,545,344,67,72,401,168,277,775,819,138,300,250,736,19,967,100,10,715,978,117,405,171,293,782,948,783,816,912,603,889,495,51,542,351,139,673,861,207,408,352,598,752,849,656,557,781,258,192,462,931,388,57,184,107,478,565,904,74,29,760,6,400,846,447,611,319,212,183,710,906,793,893,113,722,246,837,887,484,253,420,158,890,693,719,240,815,249,966,813,703,496,583,415,868,428,494,589,600,594,172,828,728,273,938,456,438,729,708,370,886,198,297,740,534,49,443,16,446,754,226,169,840,164,641,1,242,278,130,950,869,62,66,794,77,201,383,684,26,772,888,473,724,274,436,700]","arrowright","","true","0","11","183","1000","[""0052_N1000_K0183_NOCLIQUE"",""0066_N1000_K0183_CLIQUE""]"
"","","","","","audio-keyboard-response","72","585466","0.0-59.0-0.0-1.0","","null","audio_feedback/right/coin01.mp3","null","","","","","0","11","183","1000","[""0052_N1000_K0183_NOCLIQUE"",""0066_N1000_K0183_CLIQUE""]"
"","","","","","canvas-keyboard-response","73","588483","0.0-60.0-0.0-0.0","","1028","","arrowleft","[954,31,95,600,598,524,389,94,104,25,712,855,615,416,500,528,403,610,684,995,4,743,516,423,908,201,818,577,49,127,317,536,331,802,66,879,556,623,994,620,133,621,60,867,204,530,428,90,220,67,541,163,39,50,22,532,222,617,956,129,492,103,354,297,125,965,990,963,721,147,238,376,562,24,54,813,525,48,179,383,934,542,360,826,730,455,926,380,362,391,677,418,283,322,454,72,355,560,472,977,553,616,671,584,766,424,629,84,155,736,175,822,713,390,973,263,195,699,844,269,449,286,198,796,940,116,399,920,138,499,211,729,12,724,961,767,668,834,515,551,841,950,998,971,687,404,901,234,784,888,453,340,752,131,249,475,402,35,921,295,848,216,589,447,718,141,168,905,748,91,299,306,606,864,962,780,999,849,742,27,191,111,646,535,957,407,225,221,276,326,656,647,922,716,294,469,349,607,726,414,996,791,830,143,252,192,503,196,569,831,64,333,579,690,945,708,571,914,564,944,315,214,29,273,886,185,692,529,774,123,847,637,688,456,627,117,667,522,78,113,566,803,630,258,287,394,854,255,479,840,406,154,228,164,727,304,11,32,793,8,550,906,256,241,172,451,71,412,751,806,170,737,436,705,433,68,892,358,361,277,933,470,810,910,120,13,430,409,77,640,142,422,363,930,243,576,405,316,257,279,260,733,325,761,165,74,368,153,755,823,859,797,938,970,966,719,107,51,695,98,169,943,132,439,319,974,872,40,788,650,80,626,7,880,452,653,760,775,250,574,702,787,460,307,513,328,386,387,585,804,187,498,935,160,365,457,853,264,842,875,968,489,183,102,683,723,14,112,812,527,510,411,754,937,176,633,327,561,732,771,247,398,612,37,463,288,236,997,58,912,891,178,442,382,56,101,511,267,781,545,832,685,378,504,73,625,523,47,958,421,846,57,925,790,434,28,493,717,985,312,212,278,166,20,448,82,508,696,517,458,955,701,144,575,678,676,262,927,392,45,734,396,223,539,0,715,182,134,337,202,122,444,109,871,173,799,885,821,750,486,533,595,193,432,746,777,259,240,587,740,913,592,367,979,981,266,282,296,388,559,298,233,863,213,628,324,986,546,480,300,929,548,942,227,706,861,490,749,953,468,868,473,877,93,972,619,106,339,52,477,334,759,949,845,466,665,534,825,991,558,146,285,573,884,817,673,229,654,302,85,450,586,254,69,17,960,779,9,758,445,207,3,728,156,669,341,739,772,343,608,700,680,588,714,370,798,320,10,643,494,866,613,992,350,975,770,580,488,281,858,42,835,497,689,756,967,205,417,738,518,377,521,911,59,114,23,347,936,570,126,547,371,464,128,364,413,303,778,856,357,988,188,969,438,753,878,351,907,292,659,710,199,809,582,420,206,99,652,245,786,852,657,395,369,964,596,232,374,46,135,253,622,578,308,691,976,887,520,139,431,543,800,462,62,850,321,983,869,429,565,693,883,2,763,435,474,465,373,150,96,540,924,711,293,670,274,268,87,174,735,697,632,725,270,544,660,410,5,189,381,903,747,563,248,870,894,703,645,948,108,34,408,789,506,501,865,951,171,159,352,941,6,642,916,514,904,89,215,731,427,184,63,329,984,776,769,827,507,209,876,242,344,590,55,882,674,375,481,768,898,151,136,393,305,614,519,567,947,583,572,795,502,978,400,557,353,993,655,251,79,330,467,568,554,609,915,426,459,989,874,271,272,602,140,88,437,604,538,917,208,505,348,635,902,638,873,239,663,833,335,313,819,952,843,484,814,461,210,805,764,119,709,83,15,446,224,100,537,581,478,124,342,311,97,773,661,338,359,218,837,686,105,939,92,741,441,611,808,309,851,61,314,890,217,644,893,231,594,664,162,487,662,811,203,722,149,43,275,603,401,21,280,495,75,323,482,651,631,30,471,783,137,1,246,301,900,757,815,820,909,181,157,336,839,681,41,899,18,167,605,485,265,634,918,897,889,483,824,158,593,36,666,161,601,235,332,509,284,895,70,26,180,237,197,531,16,862,829,443,672,980,682,591,932,762,384,86,624,597,552,549,496,896,200,65,639,931,919,366,425,118,53,987,649,148,982,946,38,698,704,923,816,828,707,744,526,801,356,658,152,599,190,44,261,648,794,345,372,385,310,291,415,618,379,121,720,440,807,115,110,33,419,785,491,881,76,476,694,860,219,745,397,318,289,636,145,177,19,679,226,186,641,857,290,765,130,346,555,838,512,230,928,81,792,244,959,194,675,782,836]","arrowleft","","true","0","12","167","1000","[""0043_N1000_K0167_CLIQUE"",""0029_N1000_K0167_NOCLIQUE""]"
"","","","","","audio-keyboard-response","74","589486","0.0-60.0-0.0-1.0","","null","audio_feedback/right/coin01.mp3","null","","","","","0","12","167","1000","[""0043_N1000_K0167_CLIQUE"",""0029_N1000_K0167_NOCLIQUE""]"
"","","","","","canvas-keyboard-response","75","592961","0.0-61.0-0.0-0.0","","1463","","arrowleft","[41,806,962,803,918,285,567,255,635,610,216,901,310,432,17,371,327,212,776,965,890,128,644,189,841,655,955,689,826,972,364,770,171,756,834,716,242,305,487,419,385,865,102,812,908,463,508,410,224,748,359,115,570,449,571,518,729,845,401,897,75,33,577,486,785,76,588,881,448,529,543,996,483,87,566,50,202,210,398,828,352,227,621,241,713,862,810,906,351,677,661,879,392,944,587,312,93,638,905,641,808,668,784,829,438,373,678,49,527,427,168,83,447,208,484,316,112,665,363,239,898,219,278,430,377,73,772,673,701,263,21,575,232,735,699,794,47,968,400,13,480,724,158,221,725,366,231,214,405,970,964,840,912,323,647,709,6,941,8,209,309,731,836,440,711,207,863,712,596,520,816,616,637,837,999,358,79,642,856,91,250,157,805,428,121,922,851,745,545,142,58,302,876,624,799,193,848,1,332,997,702,186,620,514,980,94,791,148,173,754,767,322,640,453,657,455,116,839,386,622,296,574,96,10,3,376,893,875,70,406,259,97,827,354,144,57,433,853,395,174,235,345,192,139,524,262,977,930,598,458,802,721,37,306,643,236,380,441,734,299,525,763,994,23,966,59,521,988,937,825,350,868,796,850,744,416,264,809,159,140,251,599,939,61,162,613,917,660,718,984,946,682,421,822,646,317,627,926,659,752,680,758,780,279,411,367,347,626,155,457,14,308,286,751,120,160,503,156,578,823,30,773,282,670,368,844,179,225,52,137,452,319,349,975,691,597,681,667,460,798,553,896,217,450,181,476,838,472,56,130,423,695,854,935,956,867,55,249,135,889,586,215,360,195,860,71,537,426,85,124,297,952,526,107,126,591,182,904,858,196,777,593,855,945,265,666,298,831,738,592,84,330,422,444,859,429,82,864,628,804,365,760,485,509,397,686,538,910,861,801,101,792,491,205,465,442,720,290,281,765,830,329,378,16,849,176,287,947,793,533,172,339,534,940,273,11,335,892,409,974,252,639,53,462,950,494,580,957,391,146,301,658,248,900,991,719,762,456,749,90,989,431,779,663,775,582,269,671,987,757,66,342,636,403,548,275,554,880,928,111,685,414,536,971,874,313,18,175,404,541,27,77,778,341,493,152,782,877,740,488,669,607,846,369,507,44,274,522,334,601,170,402,194,565,693,415,420,727,292,645,29,649,143,510,293,413,256,200,707,467,664,69,260,931,820,790,138,355,382,268,197,54,612,723,103,502,982,604,504,618,4,872,674,911,439,634,585,688,283,788,706,690,169,32,938,108,482,109,31,783,605,240,813,257,272,811,871,233,184,916,489,167,270,887,741,228,959,907,25,390,750,226,474,797,978,114,985,795,630,824,705,180,387,609,786,0,63,314,271,515,177,187,9,466,698,899,550,24,990,123,201,20,26,95,648,540,704,206,958,819,523,736,576,40,28,547,238,5,336,230,190,343,48,294,247,222,198,948,361,434,885,753,995,606,732,967,560,199,470,39,737,589,185,835,498,396,672,821,747,759,700,303,295,154,986,715,687,468,505,362,873,832,42,544,656,631,161,153,80,555,866,183,807,246,888,882,86,134,761,969,333,531,321,471,383,19,581,781,218,326,478,220,915,357,542,528,886,563,923,119,92,584,417,399,927,814,105,446,650,633,244,22,289,676,277,237,733,379,564,266,407,88,943,425,559,320,495,726,652,743,318,51,500,479,539,131,625,393,697,774,511,611,815,211,703,188,34,60,934,546,394,234,229,370,739,106,953,602,74,89,147,288,469,501,276,714,445,356,614,551,742,506,569,127,65,213,722,388,595,517,300,891,717,374,122,530,951,110,683,408,771,141,787,942,451,979,932,145,473,603,884,125,481,532,913,353,340,418,847,572,346,166,497,338,81,961,2,331,99,800,384,708,654,914,424,35,921,730,920,746,594,443,412,7,963,842,46,117,436,454,307,490,925,623,903,165,869,615,519,870,755,104,768,818,348,62,561,133,337,909,464,512,562,694,936,253,38,284,557,435,475,325,960,72,459,12,492,328,632,516,304,261,223,389,43,769,64,949,558,568,833,895,857,132,710,992,381,36,311,499,258,924,163,372,883,696,583,204,477,954,766,629,728,461,552,245,67,556,684,178,375,151,344,894,653,100,191,983,619,608,573,919,852,933,15,817,579,267,98,45,617,243,600,118,902,843,993,878,590,291,315,535,68,324,496,149,981,78,976,203,692,929,437,164,998,789,254,675,513,150,136,280,549,764,129,651,662,113,679,973]","arrowleft","","true","0","13","167","1000","[""0065_N1000_K0167_CLIQUE"",""0070_N1000_K0167_NOCLIQUE""]"
"","","","","","audio-keyboard-response","76","593946","0.0-61.0-0.0-1.0","","null","audio_feedback/right/coin01.mp3","null","","","","","0","13","167","1000","[""0065_N1000_K0167_CLIQUE"",""0070_N1000_K0167_NOCLIQUE""]"
"","","","","","canvas-keyboard-response","77","599333","0.0-62.0-0.0-0.0","","3301","","arrowleft","[604,321,830,955,412,661,785,954,272,207,173,300,776,427,929,385,401,199,514,943,891,404,243,732,735,126,485,655,923,700,204,532,7,797,450,742,273,24,902,783,799,505,197,562,611,174,398,602,879,878,296,654,462,593,378,94,959,465,193,708,482,326,643,338,9,632,12,598,522,422,556,148,803,188,779,571,79,726,707,911,984,21,67,497,313,103,722,224,425,995,389,36,601,26,109,213,47,888,801,52,545,591,82,345,339,689,704,849,824,139,297,337,107,119,448,974,764,908,293,651,420,132,267,64,751,980,369,414,144,973,187,99,668,642,263,768,515,527,537,362,863,129,236,753,375,763,131,986,22,149,92,847,901,80,919,376,694,665,380,508,859,341,666,731,354,674,254,118,4,220,597,834,838,543,271,249,921,948,106,853,194,672,534,570,277,252,332,563,202,84,876,854,452,639,259,50,350,912,935,932,184,677,116,729,308,196,358,261,218,996,925,865,526,934,524,392,13,645,730,789,622,939,426,949,458,165,782,595,402,723,662,945,709,419,690,238,474,270,807,745,638,549,269,51,463,965,999,377,59,679,864,48,712,147,195,569,716,477,990,97,27,978,246,495,546,770,687,410,894,905,856,137,189,125,320,266,167,628,156,566,685,216,145,15,548,904,434,435,241,706,641,555,498,640,822,143,444,201,931,510,128,659,437,554,71,906,579,366,836,198,208,826,250,721,957,227,663,384,792,820,406,154,479,758,400,964,607,958,612,142,576,587,851,951,691,114,620,757,88,660,517,918,855,349,653,117,311,211,205,248,58,794,942,152,494,155,1,848,212,46,232,886,772,833,787,788,606,903,627,898,157,800,961,664,578,32,896,719,637,744,281,702,190,74,717,692,624,472,141,397,295,798,319,111,784,676,813,897,520,893,832,885,265,930,45,260,11,478,140,634,56,670,421,703,363,567,90,331,105,535,713,553,630,89,917,937,874,484,817,950,963,329,290,875,471,511,749,870,629,424,346,57,294,970,858,209,302,844,370,433,528,387,900,766,37,647,577,278,38,282,877,123,880,430,31,151,560,124,568,613,686,725,573,892,219,762,504,852,185,411,328,936,740,135,825,2,476,65,871,432,821,206,226,112,790,18,268,492,561,793,487,480,551,778,405,618,967,971,596,862,292,542,695,160,998,509,191,982,771,599,73,342,819,162,53,652,395,76,550,351,454,946,501,456,25,314,360,344,217,586,530,169,890,83,104,884,496,616,681,8,557,264,502,373,968,3,857,680,214,305,592,431,442,81,605,975,153,538,418,19,791,594,796,540,669,750,55,75,309,693,910,575,609,40,743,979,87,483,304,388,572,441,720,809,93,927,23,644,403,839,976,924,317,158,244,493,922,608,673,846,324,831,938,436,714,245,408,443,581,960,340,845,29,658,468,648,100,6,258,724,626,291,585,507,747,899,754,72,941,512,610,181,364,234,223,221,91,688,631,786,60,280,696,168,829,386,122,356,736,940,113,947,682,417,130,255,956,466,343,699,34,451,488,35,619,895,231,737,697,136,985,325,446,678,415,582,773,210,138,915,179,101,823,286,164,298,869,30,172,312,235,761,536,603,166,614,42,121,247,615,795,600,867,239,416,756,928,564,459,78,438,175,365,17,983,233,409,274,253,916,808,150,54,718,200,102,816,423,952,334,518,43,860,841,284,584,759,447,774,913,464,159,523,531,775,460,920,306,28,86,348,804,367,428,285,544,649,739,926,228,310,61,275,256,818,815,646,914,962,467,667,240,133,95,635,513,41,192,760,657,315,738,828,734,748,322,455,516,842,333,835,49,997,229,966,440,203,357,887,519,110,316,287,391,381,359,814,993,675,170,222,39,580,741,475,301,909,115,14,861,683,120,77,589,182,470,698,552,541,583,617,529,299,588,262,399,407,992,499,10,991,469,994,781,810,503,881,486,127,769,977,178,368,257,335,837,336,327,623,812,0,746,671,765,347,565,805,889,710,183,374,850,506,539,379,491,489,882,733,972,70,625,355,177,933,176,533,981,827,806,752,481,711,656,490,987,701,413,288,390,180,283,633,44,802,445,457,33,98,811,171,525,66,988,393,146,453,840,969,361,307,728,868,289,279,473,161,843,383,767,727,394,85,352,108,230,323,63,558,715,500,371,251,215,242,944,559,873,461,16,777,590,5,330,429,755,62,382,636,163,353,521,574,20,883,953,989,547,684,318,225,866,439,134,186,303,68,650,780,372,69,907,449,96,276,872,621,237,396,705]","arrowleft","","true","0","14","150","1000","[""0048_N1000_K0150_CLIQUE"",""0017_N1000_K0150_NOCLIQUE""]"
"","","","","","audio-keyboard-response","78","600326","0.0-62.0-0.0-1.0","","null","audio_feedback/right/coin01.mp3","null","","","","","0","14","150","1000","[""0048_N1000_K0150_CLIQUE"",""0017_N1000_K0150_NOCLIQUE""]"
"","","","","","canvas-keyboard-response","79","604670","0.0-63.0-0.0-0.0","","2373","","arrowleft","[292,891,411,489,165,6,98,850,330,569,778,253,716,875,610,640,939,353,527,291,401,208,952,860,24,867,841,883,242,211,67,798,284,30,720,493,122,694,108,782,920,63,598,659,47,126,162,672,229,644,27,642,310,90,611,645,609,693,154,886,488,945,256,62,931,393,241,829,933,988,905,422,682,553,440,181,581,450,657,54,378,601,418,225,303,362,505,941,584,622,8,491,937,459,788,347,538,177,311,944,756,717,151,260,914,591,116,951,221,343,444,428,49,147,932,304,529,550,680,2,592,702,289,549,77,794,531,827,735,403,789,474,359,874,334,718,100,60,532,513,953,57,373,245,987,185,899,562,339,665,269,873,754,387,197,957,647,33,855,125,663,161,764,409,845,487,679,761,713,482,158,495,712,912,518,342,448,226,319,40,548,268,453,283,641,388,427,752,769,437,651,172,854,351,726,612,807,344,783,323,706,91,652,616,109,404,481,876,494,21,61,168,499,384,490,81,137,182,690,947,846,557,186,417,469,605,889,723,626,305,856,828,102,734,382,620,900,773,83,318,901,514,7,943,892,68,140,928,129,588,907,869,572,517,934,320,790,88,301,187,701,443,925,978,708,982,927,567,780,691,12,512,258,209,94,771,376,55,753,715,271,576,654,188,465,571,3,325,820,201,127,75,573,547,589,700,604,887,635,235,497,42,667,11,425,583,213,19,946,848,668,908,341,173,785,272,539,169,593,53,877,606,742,191,797,543,328,113,617,455,460,205,435,231,20,394,123,881,217,317,603,795,582,419,686,834,895,4,65,558,959,930,463,175,590,525,586,262,859,658,751,385,955,212,479,95,5,200,597,868,45,758,69,115,157,537,397,519,472,364,614,993,445,916,545,615,144,802,956,600,367,544,348,503,243,793,684,37,770,370,649,964,613,276,823,697,259,878,340,360,441,132,634,473,309,703,484,837,745,990,564,736,662,130,36,728,381,733,509,918,858,52,64,178,104,106,405,76,232,585,280,818,602,18,288,832,865,456,35,23,812,87,299,763,636,677,940,568,692,540,380,413,767,436,619,389,704,801,796,314,329,220,575,696,395,792,219,454,577,852,338,803,759,835,972,714,324,264,461,961,296,739,302,962,85,223,623,805,390,857,198,462,352,498,257,722,653,740,89,16,784,363,383,799,551,919,546,84,13,508,762,520,424,155,747,167,849,152,844,355,93,963,935,913,884,349,244,59,738,633,725,897,800,293,882,449,247,556,136,554,924,101,871,163,313,408,710,507,810,996,648,160,594,960,255,379,290,981,439,894,985,976,252,369,843,190,111,203,73,768,193,28,995,777,817,25,541,170,781,121,671,685,578,864,621,942,278,315,660,524,358,608,506,233,333,312,664,145,34,968,974,486,471,66,58,356,637,638,896,678,695,22,863,958,870,56,477,51,847,760,227,579,79,737,533,624,86,458,250,402,528,307,240,332,150,991,826,478,421,521,336,368,885,222,936,915,903,565,719,969,210,842,765,898,237,804,192,434,365,485,326,929,48,673,308,431,511,50,9,501,997,216,748,416,983,809,496,787,451,566,504,135,44,146,669,731,646,466,298,526,432,277,831,438,587,977,128,246,371,851,973,38,41,683,17,29,234,166,670,96,839,830,97,979,1,516,632,595,815,510,374,206,729,555,316,699,625,199,327,204,207,574,998,607,420,82,179,202,515,806,32,824,836,821,911,711,580,410,786,70,687,133,195,249,904,816,120,149,630,423,372,153,196,775,31,194,698,239,282,248,890,270,331,446,107,862,103,429,779,141,398,906,138,430,224,139,124,142,442,902,119,552,705,819,295,189,228,813,480,391,534,215,286,470,866,377,287,265,522,164,938,426,755,530,156,949,354,386,776,143,965,14,757,273,825,923,10,732,628,561,266,599,236,650,263,542,975,643,523,357,26,110,909,954,396,893,148,350,99,281,559,618,675,872,724,861,744,171,467,335,917,921,306,433,105,535,184,627,118,994,238,345,43,399,502,279,811,926,218,464,322,285,337,72,743,346,655,92,967,689,808,476,267,880,275,560,727,261,676,406,986,596,78,500,452,570,822,948,414,492,15,392,366,741,230,46,666,176,688,180,950,300,721,853,114,814,361,639,536,475,468,483,415,131,774,80,375,457,274,833,159,879,888,840,183,629,730,791,772,980,294,71,838,412,750,321,74,0,400,707,910,746,674,970,984,971,214,992,631,39,766,112,709,447,966,656,297,922,254,989,749,407,661,117,999,134,251,174,681,563]","arrowleft","","true","0","15","150","1000","[""0029_N1000_K0150_CLIQUE"",""0078_N1000_K0150_NOCLIQUE""]"
"","","","","","audio-keyboard-response","80","605666","0.0-63.0-0.0-1.0","","null","audio_feedback/right/coin01.mp3","null","","","","","0","15","150","1000","[""0029_N1000_K0150_CLIQUE"",""0078_N1000_K0150_NOCLIQUE""]"
"","","","","","canvas-keyboard-response","81","612078","0.0-64.0-0.0-0.0","","4419","","arrowleft","[61,65,652,569,836,804,100,802,102,579,608,465,555,885,80,404,926,185,291,688,787,341,633,827,695,992,384,528,925,786,709,212,861,406,133,403,367,453,203,663,53,580,841,123,271,876,95,118,594,323,233,732,708,668,660,290,27,769,848,201,376,669,879,646,164,809,293,309,39,601,484,8,14,249,955,873,488,889,938,871,781,599,554,690,743,641,532,189,257,784,128,590,153,5,739,93,677,588,884,968,252,617,303,932,262,548,20,369,236,184,99,197,429,45,906,207,232,151,16,751,782,847,711,466,850,430,589,749,174,990,152,431,735,606,929,779,544,723,980,306,648,966,883,386,807,319,791,394,368,975,4,843,464,231,875,420,472,523,831,414,0,891,520,934,357,545,137,895,687,959,731,657,42,914,803,172,422,487,281,416,476,924,645,963,108,719,320,676,837,316,542,425,238,241,650,658,155,84,979,486,763,479,18,619,985,311,497,76,621,747,286,437,704,333,976,326,187,97,259,794,770,355,610,260,295,615,163,796,815,301,400,332,433,217,950,24,273,584,361,186,134,817,48,535,346,237,604,754,140,385,651,251,998,51,886,343,512,318,63,558,851,643,381,89,808,117,930,77,534,310,113,493,509,401,918,865,949,833,860,868,866,307,175,839,694,529,504,457,55,459,984,415,783,127,940,919,111,655,701,740,489,365,266,567,630,179,214,903,697,760,132,729,461,774,194,822,961,915,211,933,33,334,616,675,490,867,741,17,205,765,498,447,700,644,68,793,177,506,423,659,521,218,943,559,66,907,119,698,471,983,160,953,670,450,289,826,353,762,98,854,34,124,927,156,317,37,104,1,402,511,527,877,162,79,358,829,870,618,492,356,114,139,22,121,331,928,671,982,685,538,823,477,274,146,313,744,29,664,13,198,188,122,825,345,936,537,58,340,818,801,110,359,638,536,501,935,112,75,720,40,69,706,502,60,636,666,566,911,549,773,169,540,858,443,103,547,790,267,463,210,436,126,967,585,478,920,696,242,247,565,611,448,684,143,213,962,206,344,937,699,495,396,901,23,603,147,130,813,52,265,125,560,609,78,553,21,305,738,43,312,561,852,623,828,568,748,628,421,973,300,564,614,691,308,392,454,196,458,85,50,939,514,339,857,693,662,371,441,922,248,683,59,900,653,733,730,380,880,978,395,715,898,775,516,449,556,314,239,881,413,838,330,799,724,661,467,958,73,951,725,716,771,485,507,410,582,229,204,383,642,524,434,483,474,546,893,364,917,49,328,338,324,637,946,321,387,622,814,972,746,844,994,714,631,888,592,800,12,977,352,136,11,470,892,952,161,285,57,649,864,755,2,41,499,518,625,496,411,31,595,176,81,821,71,789,107,785,44,997,600,397,378,882,393,253,438,834,491,240,788,745,272,480,298,902,264,159,686,219,228,452,261,469,141,550,382,173,767,181,460,167,654,947,795,10,9,634,409,424,283,101,921,717,270,428,855,526,170,294,761,468,956,593,736,853,269,673,74,759,142,856,931,299,573,408,727,626,533,90,758,910,348,805,462,607,680,244,72,517,455,835,451,354,109,145,905,862,780,435,552,756,342,91,366,581,171,792,315,105,202,440,226,513,442,276,302,282,192,576,482,263,129,678,632,47,812,230,635,543,165,539,182,577,728,572,220,56,417,722,819,412,222,275,373,530,138,54,46,347,750,737,32,418,806,971,481,596,890,923,362,863,960,500,665,942,571,639,878,360,816,288,845,916,647,692,570,390,325,336,405,255,67,522,398,964,721,256,92,208,667,703,525,896,427,200,840,957,613,158,508,28,199,702,503,605,370,909,726,899,562,444,168,753,245,304,287,842,115,970,350,183,752,195,419,106,36,531,473,757,768,629,656,710,292,832,388,254,734,15,494,439,602,193,157,575,954,280,830,999,349,505,908,778,557,707,234,798,672,764,988,258,682,3,849,7,456,426,578,144,627,996,279,846,227,166,681,598,180,777,377,766,363,989,379,674,64,337,944,215,322,327,679,149,742,82,268,86,284,351,235,872,374,120,912,904,335,407,116,372,190,563,587,718,35,150,389,391,329,776,221,87,551,586,965,597,583,19,225,772,475,974,869,515,859,70,820,620,445,178,243,705,591,38,624,148,987,993,887,277,216,969,574,519,894,995,991,88,986,948,62,209,250,278,612,224,824,375,810,897,296,30,154,26,399,510,94,25,297,941,945,874,713,96,640,432,191,981,797,712,83,6,811,223,131,446,135,913,541,689,246]","arrowleft","","true","0","16","133","1000","[""0005_N1000_K0133_CLIQUE"",""0076_N1000_K0133_NOCLIQUE""]"
"","","","","","audio-keyboard-response","82","613066","0.0-64.0-0.0-1.0","","null","audio_feedback/right/coin01.mp3","null","","","","","0","16","133","1000","[""0005_N1000_K0133_CLIQUE"",""0076_N1000_K0133_NOCLIQUE""]"
"","","","","","canvas-keyboard-response","83","617735","0.0-65.0-0.0-0.0","","2637","","arrowleft","[865,191,833,395,754,499,862,29,738,171,548,203,180,776,464,545,240,636,3,957,986,361,770,611,660,72,181,118,524,380,768,817,960,654,176,759,53,573,816,251,973,962,830,774,440,496,582,310,893,873,575,827,269,255,163,915,156,348,222,917,258,243,351,689,399,403,904,98,847,796,396,144,59,356,581,576,20,572,811,615,303,890,2,652,802,735,930,723,697,902,914,949,842,329,410,185,150,168,547,0,790,927,787,804,828,745,383,385,587,393,33,773,23,276,125,214,364,248,111,225,223,720,143,420,896,209,35,513,598,386,970,110,650,706,872,93,291,522,664,643,49,989,939,888,116,445,562,340,903,975,331,501,557,549,658,228,449,174,462,341,166,32,188,369,34,94,935,997,894,936,724,277,560,489,925,825,669,323,514,263,574,992,765,594,731,441,159,100,368,945,510,919,621,90,984,433,482,807,841,584,540,487,179,101,19,280,373,273,443,413,157,217,490,21,237,304,854,274,823,592,556,898,486,148,668,376,183,511,922,782,801,871,232,414,301,197,89,799,682,5,64,506,672,577,726,674,66,920,195,740,856,83,481,926,552,483,312,632,629,624,815,521,363,918,453,528,849,969,221,13,680,835,480,353,659,886,966,712,107,133,730,518,172,298,446,604,756,86,950,244,402,541,981,588,377,923,845,928,374,714,940,606,741,432,91,325,16,479,639,891,631,370,70,112,613,591,882,366,465,169,605,431,721,905,282,742,667,226,840,299,641,934,262,974,411,210,921,837,362,553,165,628,318,509,771,409,469,346,761,382,324,257,747,961,537,227,76,28,538,495,678,838,467,786,419,11,452,427,779,971,345,497,321,58,529,367,881,844,249,564,814,287,617,959,952,425,468,266,878,913,231,648,290,931,568,874,102,647,256,122,476,69,46,121,192,79,792,390,357,593,439,252,415,929,866,942,791,272,224,8,901,62,579,589,447,602,685,675,268,781,391,525,241,715,625,293,285,54,260,444,52,607,610,134,281,458,967,570,797,457,173,507,978,7,296,491,493,211,216,87,512,943,820,996,31,146,546,401,398,571,300,492,283,343,1,45,586,135,338,99,500,416,812,294,407,681,189,284,123,130,233,142,956,6,387,694,696,719,314,892,289,246,772,84,846,821,686,504,762,711,985,651,371,498,806,279,590,375,147,885,595,220,337,704,381,434,784,716,184,435,635,328,612,358,633,710,663,315,563,998,616,569,327,565,869,155,42,187,578,239,213,805,767,924,421,138,688,676,305,384,794,120,332,193,867,198,911,330,994,307,81,947,494,437,561,350,515,948,609,265,656,392,744,139,722,638,334,819,600,875,397,388,583,746,558,372,17,679,725,640,463,51,236,55,937,646,96,502,297,526,44,9,585,614,194,876,326,808,286,868,47,916,900,204,798,958,983,65,666,136,26,717,131,733,71,39,858,972,205,883,167,485,152,14,408,475,151,944,793,132,215,637,839,777,505,40,354,206,57,912,85,566,884,826,153,705,991,97,534,887,824,424,302,61,832,355,412,601,128,267,861,36,857,531,532,270,48,968,910,691,732,692,127,436,448,12,703,478,622,653,114,43,484,597,946,68,855,709,474,423,618,238,63,879,795,394,834,426,993,177,129,488,82,271,982,261,727,254,104,508,141,349,50,990,736,459,843,906,539,995,161,907,778,554,455,182,655,471,253,670,196,743,115,67,848,311,649,473,880,317,10,178,766,860,170,760,245,951,109,149,461,117,451,316,803,750,405,909,536,988,683,406,753,627,472,162,24,119,555,889,38,74,73,809,242,976,687,460,810,230,665,95,677,154,404,78,596,503,306,359,851,642,106,309,186,864,530,789,339,608,344,780,707,695,895,953,533,965,164,80,278,701,25,870,728,454,201,527,250,938,748,60,124,288,207,645,708,822,199,275,379,347,544,877,818,365,661,785,567,980,22,644,92,941,466,422,580,313,319,37,752,335,550,75,853,108,158,603,634,56,693,4,673,729,389,755,899,113,175,700,863,630,850,342,964,208,202,336,859,140,699,103,662,623,322,320,259,813,800,400,516,519,955,88,932,438,897,999,734,829,218,333,619,757,963,698,418,737,200,190,456,713,137,908,977,428,671,235,543,758,27,987,763,160,749,30,702,599,520,378,264,933,626,430,450,751,105,234,352,126,77,764,477,542,783,788,417,831,212,15,292,535,229,219,739,523,559,684,852,18,41,442,954,308,470,979,247,718,769,775,429,690,657,551,360,517,295,836,145,620]","arrowleft","","true","0","17","133","1000","[""0083_N1000_K0133_CLIQUE"",""0052_N1000_K0133_NOCLIQUE""]"
"","","","","","audio-keyboard-response","84","618726","0.0-65.0-0.0-1.0","","null","audio_feedback/right/coin01.mp3","null","","","","","0","17","133","1000","[""0083_N1000_K0133_CLIQUE"",""0052_N1000_K0133_NOCLIQUE""]"
"","","","","","canvas-keyboard-response","85","622653","0.0-66.0-0.0-0.0","","1921","","arrowleft","[794,288,905,682,782,929,39,674,86,933,499,841,68,592,524,220,885,329,399,401,800,41,511,278,213,99,588,379,927,64,725,529,209,227,934,967,397,565,730,386,442,693,635,613,158,960,882,391,163,637,426,422,467,697,392,961,702,962,662,183,787,655,807,714,129,148,671,142,606,52,767,264,196,980,114,223,486,46,377,857,219,58,600,388,796,747,173,640,884,224,12,652,473,380,305,350,493,218,476,561,977,740,968,402,2,186,366,978,322,936,820,327,193,438,719,221,574,899,887,20,611,441,77,616,814,284,551,663,83,733,7,261,242,89,597,108,450,811,692,504,192,585,466,407,946,572,556,657,792,878,48,225,3,789,198,232,355,135,604,247,801,855,479,506,0,253,27,395,122,654,636,285,154,804,500,254,746,591,984,31,822,217,325,105,715,427,106,983,914,970,932,351,668,830,311,457,5,881,73,631,87,321,836,315,703,43,496,943,722,443,537,805,454,847,589,243,856,492,704,179,981,51,384,602,283,53,420,642,728,136,605,963,90,456,248,580,415,76,894,744,369,266,237,599,761,61,121,897,951,535,566,539,276,475,534,522,287,953,759,406,769,189,160,156,54,743,352,903,199,683,851,216,926,230,753,332,622,60,818,633,170,768,251,526,940,681,567,793,918,527,732,755,817,966,559,815,846,17,509,191,270,428,774,865,9,363,949,38,780,945,515,150,931,42,201,742,573,660,935,494,394,651,175,446,995,490,576,143,267,293,906,947,659,260,440,465,421,417,724,231,239,950,867,547,848,226,22,880,307,781,760,24,81,430,958,620,229,612,333,313,770,904,647,382,451,398,810,543,411,389,497,439,484,235,739,998,764,125,357,802,116,8,557,979,36,268,614,317,669,992,552,370,827,890,244,758,731,57,586,13,536,145,694,258,601,806,72,729,870,875,62,510,799,688,745,319,256,82,518,29,996,292,705,96,372,531,408,80,431,271,625,991,144,252,97,570,238,989,353,555,771,532,207,157,452,280,505,255,664,816,864,28,736,133,241,306,155,790,44,11,803,323,608,752,948,250,763,131,208,624,819,104,127,797,650,712,785,972,538,177,542,507,628,892,609,361,18,598,453,303,717,879,519,691,982,21,37,246,677,429,200,347,15,358,447,512,343,937,568,16,653,180,234,550,676,675,765,462,665,360,583,971,274,523,667,988,344,521,877,721,409,700,964,687,786,577,707,956,709,923,474,828,900,916,862,297,205,839,215,863,888,607,365,67,925,291,813,965,335,750,587,487,842,30,546,405,393,111,517,985,423,66,798,854,495,367,898,859,78,860,93,419,619,710,103,282,812,444,698,959,775,112,528,206,986,957,302,375,167,471,212,723,478,139,738,55,777,562,368,19,845,678,50,383,320,501,185,308,330,123,895,990,184,784,852,749,14,113,98,618,181,488,35,204,312,338,435,166,272,304,658,71,646,634,564,908,141,661,973,174,340,594,919,390,941,164,418,75,240,656,560,477,690,883,689,514,632,545,289,236,621,563,795,210,74,891,680,558,711,413,275,95,416,872,354,33,318,448,498,686,348,458,132,610,168,503,575,119,309,1,920,673,638,834,470,808,913,975,334,299,944,387,110,824,579,993,896,838,331,301,684,902,172,706,974,530,482,396,295,6,152,734,169,385,197,569,672,434,939,581,249,69,460,464,187,525,623,437,4,508,346,469,773,718,79,695,433,70,176,826,40,49,481,400,32,171,921,107,138,214,853,296,128,120,298,472,459,245,63,376,533,783,117,685,849,137,414,603,987,159,754,130,165,928,648,349,273,480,356,994,124,25,449,345,837,831,696,866,115,829,788,708,65,424,359,85,544,756,489,791,140,713,873,850,779,403,300,316,901,835,540,202,520,513,326,645,907,161,825,915,844,109,541,455,909,56,751,649,203,969,336,843,553,101,893,491,374,373,10,590,955,259,554,26,627,153,314,228,726,917,876,337,644,92,924,279,701,720,342,45,952,832,324,954,833,195,938,126,912,578,716,194,461,548,94,757,485,930,190,670,596,615,432,999,997,468,886,134,911,643,639,23,88,871,91,310,339,425,778,584,188,59,735,942,910,362,364,869,445,772,595,265,748,776,410,341,699,868,483,404,178,629,666,821,412,762,976,809,146,641,463,277,263,617,858,593,294,874,516,100,162,737,381,371,549,102,502,286,679,118,47,436,149,233,211,727,222,262,840,571,861,269,766,630,741,922,626,582,257,34,889,147,378,823,328,281,290,84,151,182]","arrowleft","","true","0","18","117","1000","[""0087_N1000_K0117_CLIQUE"",""0083_N1000_K0117_NOCLIQUE""]"
"","","","","","audio-keyboard-response","86","623646","0.0-66.0-0.0-1.0","","null","audio_feedback/right/coin01.mp3","null","","","","","0","18","117","1000","[""0087_N1000_K0117_CLIQUE"",""0083_N1000_K0117_NOCLIQUE""]"
