"success","timeout","failed_images","failed_audio","failed_video","trial_type","trial_index","time_elapsed","internal_node_id","view_history","rt","stimulus","response","nodes_order","correct_response","graphs_couple","accuracy","block_index","presentation_index","clique_size","graph_size","graphs_names"
"true","false","[]","[]","[]","preload","0","49","0.0-0.0","","","","","","","","","","","","",""
"","","","","","pavlovia","1","870","0.0-1.0","","","","","","","","","","","","",""
"","","","","","instructions","2","2674","0.0-2.0","[{""page_index"":0,""viewing_time"":1203},{""page_index"":1,""viewing_time"":598}]","1802","","","","","","","","","","",""
"true","false","[]","[]","[]","preload","3","2720","0.0-3.0","","","","","","","","","","","","",""
"","","","","","instructions","4","17870","0.0-4.0","[{""page_index"":0,""viewing_time"":836},{""page_index"":1,""viewing_time"":284},{""page_index"":2,""viewing_time"":227},{""page_index"":3,""viewing_time"":222},{""page_index"":4,""viewing_time"":223},{""page_index"":5,""viewing_time"":243},{""page_index"":6,""viewing_time"":245},{""page_index"":7,""viewing_time"":281},{""page_index"":8,""viewing_time"":268},{""page_index"":9,""viewing_time"":243},{""page_index"":10,""viewing_time"":231},{""page_index"":11,""viewing_time"":212},{""page_index"":12,""viewing_time"":235},{""page_index"":13,""viewing_time"":238},{""page_index"":14,""viewing_time"":264},{""page_index"":15,""viewing_time"":251},{""page_index"":16,""viewing_time"":243},{""page_index"":17,""viewing_time"":253},{""page_index"":18,""viewing_time"":279},{""page_index"":19,""viewing_time"":267},{""page_index"":20,""viewing_time"":273},{""page_index"":21,""viewing_time"":173},{""page_index"":22,""viewing_time"":328},{""page_index"":23,""viewing_time"":258},{""page_index"":24,""viewing_time"":263},{""page_index"":25,""viewing_time"":253},{""page_index"":26,""viewing_time"":244},{""page_index"":27,""viewing_time"":273},{""page_index"":28,""viewing_time"":234},{""page_index"":29,""viewing_time"":231},{""page_index"":30,""viewing_time"":256},{""page_index"":31,""viewing_time"":250},{""page_index"":32,""viewing_time"":280},{""page_index"":33,""viewing_time"":380},{""page_index"":34,""viewing_time"":323},{""page_index"":35,""viewing_time"":357},{""page_index"":36,""viewing_time"":310},{""page_index"":37,""viewing_time"":273},{""page_index"":38,""viewing_time"":352},{""page_index"":39,""viewing_time"":286},{""page_index"":40,""viewing_time"":305},{""page_index"":41,""viewing_time"":290},{""page_index"":42,""viewing_time"":492},{""page_index"":43,""viewing_time"":309},{""page_index"":44,""viewing_time"":277},{""page_index"":45,""viewing_time"":392},{""page_index"":46,""viewing_time"":324},{""page_index"":47,""viewing_time"":376},{""page_index"":48,""viewing_time"":308},{""page_index"":49,""viewing_time"":320},{""page_index"":50,""viewing_time"":320},{""page_index"":51,""viewing_time"":296}]","15150","","","","","","","","","","",""
"","","","","","instructions","5","19084","0.0-5.0","[{""page_index"":0,""viewing_time"":1212}]","1213","","","","","","","","","","",""
"true","false","[]","[]","[]","preload","6","37656","0.0-6.0","","","","","","","","","","","","",""
"","","","","","image-keyboard-response","7","44292","0.0-7.0","","6632","tutorial/task_familiarization_images/part 1/01_N160_K90_cliqueRight_question1.PNG"," ","","","","","","","","",""
"","","","","","image-keyboard-response","8","45912","0.0-8.0","","1618","tutorial/task_familiarization_images/part 1/02_N160_K90_cliqueRight_question2.PNG"," ","","","","","","","","",""
"","","","","","image-keyboard-response","9","47886","0.0-9.0","","1979","tutorial/task_familiarization_images/part 1/03_N160_K90_cliqueRight_question3.PNG","arrowright","","","","","","","","",""
"","","","","","image-keyboard-response","10","49066","0.0-10.0","","1178","tutorial/task_familiarization_images/part 1/04_N160_K90_cliqueRight_solution.PNG"," ","","","","","","","","",""
"","","","","","image-keyboard-response","11","50226","0.0-11.0","","1159","tutorial/task_familiarization_images/part 1/05_N160_K65_cliqueRight_question1.PNG"," ","","","","","","","","",""
"","","","","","image-keyboard-response","12","50717","0.0-12.0","","489","tutorial/task_familiarization_images/part 1/06_N160_K65_cliqueRight_question2.PNG"," ","","","","","","","","",""
"","","","","","image-keyboard-response","13","51263","0.0-13.0","","544","tutorial/task_familiarization_images/part 1/07_N160_K65_cliqueRight_question3.PNG","arrowright","","","","","","","","",""
"","","","","","image-keyboard-response","14","52088","0.0-14.0","","824","tutorial/task_familiarization_images/part 1/08_N160_K65_cliqueRight_solution.PNG"," ","","","","","","","","",""
"","","","","","image-keyboard-response","15","52632","0.0-15.0","","543","tutorial/task_familiarization_images/part 1/09_N160_K50_cliqueLeft_question1.PNG"," ","","","","","","","","",""
"","","","","","image-keyboard-response","16","54254","0.0-16.0","","1620","tutorial/task_familiarization_images/part 1/10_N160_K50_cliqueLeft_question2.PNG"," ","","","","","","","","",""
"","","","","","image-keyboard-response","17","55547","0.0-17.0","","1291","tutorial/task_familiarization_images/part 1/11_N160_K50_cliqueLeft_question3.PNG","arrowleft","","","","","","","","",""
"","","","","","image-keyboard-response","18","56671","0.0-18.0","","1121","tutorial/task_familiarization_images/part 1/12_N160_K50_cliqueLeft_solution.PNG"," ","","","","","","","","",""
"","","","","","image-keyboard-response","19","58071","0.0-19.0","","1398","tutorial/task_familiarization_images/part 1/13_N160_K80_cliqueLeft_question1.PNG"," ","","","","","","","","",""
"","","","","","image-keyboard-response","20","58803","0.0-20.0","","731","tutorial/task_familiarization_images/part 1/14_N160_K80_cliqueLeft_question2.PNG"," ","","","","","","","","",""
"","","","","","image-keyboard-response","21","60312","0.0-21.0","","1507","tutorial/task_familiarization_images/part 1/15_N160_K80_cliqueLeft_question3.PNG","arrowleft","","","","","","","","",""
"","","","","","image-keyboard-response","22","61467","0.0-22.0","","1154","tutorial/task_familiarization_images/part 1/16_N160_K80_cliqueLeft_solution.PNG"," ","","","","","","","","",""
"","","","","","image-keyboard-response","23","62562","0.0-23.0","","1093","tutorial/task_familiarization_images/part 1/17_N160_K40_cliqueRight_question1.PNG"," ","","","","","","","","",""
"","","","","","image-keyboard-response","24","63102","0.0-24.0","","538","tutorial/task_familiarization_images/part 1/18_N160_K40_cliqueRight_question2.PNG"," ","","","","","","","","",""
"","","","","","image-keyboard-response","25","64470","0.0-25.0","","1366","tutorial/task_familiarization_images/part 1/19_N160_K40_cliqueRight_question3.PNG","arrowright","","","","","","","","",""
"","","","","","image-keyboard-response","26","65557","0.0-26.0","","1086","tutorial/task_familiarization_images/part 1/20_N160_K40_cliqueRight_solution.PNG"," ","","","","","","","","",""
"","","","","","image-keyboard-response","27","66997","0.0-27.0","","1439","tutorial/task_familiarization_images/part 1/21_N160_K70_cliqueLeft_question1.PNG"," ","","","","","","","","",""
"","","","","","image-keyboard-response","28","67300","0.0-28.0","","301","tutorial/task_familiarization_images/part 1/22_N160_K70_cliqueLeft_question2.PNG"," ","","","","","","","","",""
"","","","","","image-keyboard-response","29","68211","0.0-29.0","","909","tutorial/task_familiarization_images/part 1/23_N160_K70_cliqueLeft_question3.PNG","arrowleft","","","","","","","","",""
"","","","","","image-keyboard-response","30","68966","0.0-30.0","","753","tutorial/task_familiarization_images/part 1/24_N160_K70_cliqueLeft_solution.PNG"," ","","","","","","","","",""
"true","false","[]","[]","[]","preload","31","75879","0.0-31.0","","","","","","","","","","","","",""
"","","","","","image-keyboard-response","32","77759","0.0-32.0","","1879","tutorial/task_familiarization_images/part 2/01_160_80_cliqueLeft_withFeedback_1.PNG"," ","","","","","","","","",""
"","","","","","image-keyboard-response","33","78579","0.0-33.0","","819","tutorial/task_familiarization_images/part 2/02_160_80_cliqueLeft_withFeedback_1.PNG"," ","","","","","","","","",""
"","","","","","image-keyboard-response","34","79991","0.0-34.0","","1409","tutorial/task_familiarization_images/part 2/03_160_80_cliqueLeft_withFeedback_3.PNG","arrowleft","","","","","","","","",""
"","","","","","image-keyboard-response","35","80857","0.0-35.0","","863","tutorial/task_familiarization_images/part 2/04_160_80_cliqueLeft_withFeedback_correct.PNG"," ","","","","","","","","",""
"","","","","","image-keyboard-response","36","81425","0.0-36.0","","567","tutorial/task_familiarization_images/part 2/05_160_55_cliqueRight_withFeedback_1.PNG"," ","","","","","","","","",""
"","","","","","image-keyboard-response","37","85257","0.0-37.0","","3829","tutorial/task_familiarization_images/part 2/06_160_55_cliqueRight_withFeedback_2.PNG"," ","","","","","","","","",""
"","","","","","image-keyboard-response","38","85388","0.0-38.0","","128","tutorial/task_familiarization_images/part 2/07_160_55_cliqueRight_withFeedback_3.PNG","arrowright","","","","","","","","",""
"","","","","","image-keyboard-response","39","87060","0.0-39.0","","1670","tutorial/task_familiarization_images/part 2/08_160_55_cliqueRight_withFeedback_correct.PNG"," ","","","","","","","","",""
"","","","","","image-keyboard-response","40","89186","0.0-40.0","","2125","tutorial/task_familiarization_images/part 2/09_160_70_cliqueLeft_withFeedback_1.PNG"," ","","","","","","","","",""
"","","","","","image-keyboard-response","41","90655","0.0-41.0","","1467","tutorial/task_familiarization_images/part 2/10_160_70_cliqueLeft_withFeedback_2.PNG"," ","","","","","","","","",""
"","","","","","image-keyboard-response","42","91181","0.0-42.0","","524","tutorial/task_familiarization_images/part 2/11_160_70_cliqueLeft_withFeedback_3.PNG","arrowleft","","","","","","","","",""
"","","","","","image-keyboard-response","43","91955","0.0-43.0","","772","tutorial/task_familiarization_images/part 2/12_160_70_cliqueLeft_withFeedback_correct.PNG"," ","","","","","","","","",""
"","","","","","survey-html-form","44","99323","0.0-44.0","","7365","","{""gender"":""female"",""age"":""23""}","","","","","","","","",""
"","","","","","instructions","45","100300","0.0-45.0","[{""page_index"":0,""viewing_time"":975}]","975","","","","","","","","","","",""
"","","","","","html-keyboard-response","46","101306","0.0-46.0-0.0-0.0","","null","Please wait while the experiment is loading...<br><br> (This could take a few minutes, if you are on a slow connection)","null","","","","","","","","",""
"","","","","","html-keyboard-response","47","102313","0.0-46.0-0.1-0.1","","null","Please wait while the experiment is loading...<br><br> (This could take a few minutes, if you are on a slow connection)","null","","","","","","","","",""
"","","","","","html-keyboard-response","48","103315","0.0-46.0-0.2-0.2","","null","Please wait while the experiment is loading...<br><br> (This could take a few minutes, if you are on a slow connection)","null","","","","","","","","",""
"","","","","","html-keyboard-response","49","104333","0.0-46.0-0.3-0.3","","null","Please wait while the experiment is loading...<br><br> (This could take a few minutes, if you are on a slow connection)","null","","","","","","","","",""
"","","","","","html-keyboard-response","50","105338","0.0-46.0-0.4-0.4","","null","Please wait while the experiment is loading...<br><br> (This could take a few minutes, if you are on a slow connection)","null","","","","","","","","",""
"","","","","","html-keyboard-response","51","106741","0.0-46.0-0.5-0.5","","null","Please wait while the experiment is loading...<br><br> (This could take a few minutes, if you are on a slow connection)","null","","","","","","","","",""
"","","","","","html-keyboard-response","52","107756","0.0-46.0-0.6-0.6","","null","Please wait while the experiment is loading...<br><br> (This could take a few minutes, if you are on a slow connection)","null","","","","","","","","",""
"","","","","","html-keyboard-response","53","108787","0.0-46.0-0.7-0.7","","null","Please wait while the experiment is loading...<br><br> (This could take a few minutes, if you are on a slow connection)","null","","","","","","","","",""
"","","","","","html-keyboard-response","54","109799","0.0-46.0-0.8-0.8","","null","Please wait while the experiment is loading...<br><br> (This could take a few minutes, if you are on a slow connection)","null","","","","","","","","",""
"","","","","","html-keyboard-response","55","110815","0.0-46.0-0.9-0.9","","null","Please wait while the experiment is loading...<br><br> (This could take a few minutes, if you are on a slow connection)","null","","","","","","","","",""
"","","","","","html-keyboard-response","56","111823","0.0-46.0-0.10-0.10","","null","Please wait while the experiment is loading...<br><br> (This could take a few minutes, if you are on a slow connection)","null","","","","","","","","",""
"","","","","","html-keyboard-response","57","112830","0.0-46.0-0.11-0.11","","null","Please wait while the experiment is loading...<br><br> (This could take a few minutes, if you are on a slow connection)","null","","","","","","","","",""
"","","","","","html-keyboard-response","58","113836","0.0-46.0-0.12-0.12","","null","Please wait while the experiment is loading...<br><br> (This could take a few minutes, if you are on a slow connection)","null","","","","","","","","",""
"","","","","","html-keyboard-response","59","114852","0.0-46.0-0.13-0.13","","null","Please wait while the experiment is loading...<br><br> (This could take a few minutes, if you are on a slow connection)","null","","","","","","","","",""
"","","","","","html-keyboard-response","60","115854","0.0-46.0-0.14-0.14","","null","Please wait while the experiment is loading...<br><br> (This could take a few minutes, if you are on a slow connection)","null","","","","","","","","",""
"","","","","","html-keyboard-response","61","116857","0.0-46.0-0.15-0.15","","null","Please wait while the experiment is loading...<br><br> (This could take a few minutes, if you are on a slow connection)","null","","","","","","","","",""
"","","","","","html-keyboard-response","62","117860","0.0-46.0-0.16-0.16","","null","Please wait while the experiment is loading...<br><br> (This could take a few minutes, if you are on a slow connection)","null","","","","","","","","",""
"","","","","","html-keyboard-response","63","118863","0.0-46.0-0.17-0.17","","null","Please wait while the experiment is loading...<br><br> (This could take a few minutes, if you are on a slow connection)","null","","","","","","","","",""
"","","","","","html-keyboard-response","64","119869","0.0-46.0-0.18-0.18","","null","Please wait while the experiment is loading...<br><br> (This could take a few minutes, if you are on a slow connection)","null","","","","","","","","",""
"","","","","","html-keyboard-response","65","120877","0.0-46.0-0.19-0.19","","null","Please wait while the experiment is loading...<br><br> (This could take a few minutes, if you are on a slow connection)","null","","","","","","","","",""
"","","","","","html-keyboard-response","66","121880","0.0-46.0-0.20-0.20","","null","Please wait while the experiment is loading...<br><br> (This could take a few minutes, if you are on a slow connection)","null","","","","","","","","",""
"","","","","","html-keyboard-response","67","122890","0.0-46.0-0.21-0.21","","null","Please wait while the experiment is loading...<br><br> (This could take a few minutes, if you are on a slow connection)","null","","","","","","","","",""
"","","","","","html-keyboard-response","68","123899","0.0-46.0-0.22-0.22","","null","Please wait while the experiment is loading...<br><br> (This could take a few minutes, if you are on a slow connection)","null","","","","","","","","",""
"","","","","","html-keyboard-response","69","124910","0.0-46.0-0.23-0.23","","null","Please wait while the experiment is loading...<br><br> (This could take a few minutes, if you are on a slow connection)","null","","","","","","","","",""
"","","","","","html-keyboard-response","70","130645","0.0-46.0-1.0","","5733","Experiment has finished loading.<br><br>Press <b>any key</b> to start."," ","","","","","","","","",""
"true","","","","","fullscreen","71","133536","0.0-47.0","","","","","","","","","","","","",""
"","","","","","canvas-keyboard-response","72","139099","0.0-48.0-0.0-0.0","","4338","","arrowleft","[831,460,744,729,137,870,751,868,675,74,492,257,44,498,473,119,495,251,29,410,550,502,611,925,644,746,194,62,50,351,587,877,403,634,643,345,99,180,716,60,598,722,224,478,855,677,339,450,442,897,569,14,440,882,122,906,905,197,710,494,683,880,300,774,199,816,38,565,299,207,841,42,148,597,742,965,568,371,392,30,423,994,236,108,369,834,795,851,542,163,77,391,678,917,305,433,679,662,681,462,635,363,384,459,325,383,562,431,476,578,317,703,776,395,540,314,490,755,190,358,31,322,221,320,792,520,701,517,653,963,28,283,209,800,885,984,975,869,372,858,110,616,813,329,78,660,521,335,295,620,505,260,715,250,439,796,246,543,173,455,723,381,94,12,849,988,273,791,989,618,873,801,693,11,69,638,837,551,614,874,998,787,189,6,405,942,264,323,80,633,500,507,4,438,243,790,606,407,370,308,326,739,953,81,537,361,864,916,672,828,409,130,271,814,470,47,966,839,400,605,366,140,579,158,83,951,296,220,557,807,689,185,182,1,719,290,695,458,481,811,993,203,912,346,699,474,809,101,566,952,111,734,463,56,21,740,529,213,760,987,499,820,548,761,731,879,883,939,240,583,360,441,758,475,165,76,238,829,454,915,732,996,904,70,995,318,447,847,124,944,592,151,771,676,532,878,98,524,673,927,759,833,825,275,946,303,572,424,810,117,19,331,724,590,973,913,367,471,844,959,835,294,176,157,79,577,936,343,514,802,933,152,488,733,104,184,293,546,406,195,52,85,36,272,509,18,892,665,735,636,705,359,394,312,900,349,501,214,7,216,13,528,631,640,380,775,970,211,781,685,641,285,661,330,976,788,516,698,134,297,241,479,845,708,622,720,430,990,377,934,422,603,743,977,57,881,536,288,628,941,304,772,876,649,613,694,692,206,287,93,348,332,401,930,218,637,908,931,432,45,909,388,373,730,642,26,159,559,66,957,866,674,480,155,286,983,453,484,547,228,420,378,187,893,821,887,687,658,920,368,794,503,154,357,854,212,248,269,226,666,429,247,527,922,88,35,538,254,793,116,896,41,655,553,518,817,627,468,696,200,593,291,943,648,315,584,895,657,153,647,426,333,652,338,891,923,82,865,168,95,97,690,186,64,298,160,512,937,789,223,193,181,697,201,456,58,859,43,107,20,418,365,215,192,103,33,210,589,582,352,356,564,24,54,385,601,177,205,768,872,964,950,324,968,9,113,702,496,721,832,115,414,497,467,842,779,284,510,229,861,717,179,49,575,974,780,208,252,128,785,798,921,461,718,259,170,397,100,102,815,812,609,327,784,615,747,554,840,32,979,741,530,580,145,709,560,175,639,267,75,347,726,770,16,651,623,826,55,466,452,901,301,581,659,120,617,142,132,169,558,227,684,90,313,940,354,738,838,340,465,535,646,133,123,978,485,138,668,843,863,827,786,166,253,914,404,411,376,552,700,23,808,350,567,477,714,270,435,860,118,600,884,22,956,961,162,713,630,889,382,316,954,805,823,202,706,255,704,777,341,608,379,728,654,364,279,888,667,686,972,129,626,472,595,408,985,962,570,156,573,61,198,890,161,464,149,412,782,448,539,727,263,280,8,656,563,239,929,938,3,928,783,619,508,146,541,629,91,919,804,282,773,819,910,399,96,670,894,222,899,596,150,25,778,707,986,903,39,86,850,754,249,355,445,574,487,127,482,245,506,451,924,386,624,545,40,982,753,549,862,311,907,171,504,289,237,219,89,533,34,886,53,402,417,856,991,960,427,135,0,398,131,571,712,766,233,586,421,231,262,764,87,997,737,266,172,763,483,174,321,797,428,555,531,375,306,599,141,121,911,469,292,328,491,935,602,711,183,5,309,67,971,374,274,836,84,51,278,853,932,334,725,948,446,748,680,217,902,242,848,235,457,387,522,871,109,671,353,625,362,999,15,396,523,65,762,745,425,750,416,650,230,191,967,752,556,594,591,513,112,68,63,225,749,515,664,244,114,898,144,389,73,59,319,419,302,188,980,857,822,926,71,126,307,344,803,767,489,765,682,607,688,167,337,534,757,105,136,276,955,806,147,526,612,604,415,336,992,413,46,256,37,390,969,265,561,106,691,342,27,918,444,125,258,48,17,10,585,139,449,621,958,756,437,645,434,2,72,852,824,945,947,511,799,393,610,310,92,736,632,493,234,232,846,178,204,867,164,830,443,436,268,519,875,663,981,818,949,281,143,588,669,544,576,486,196,261,769,277,525]","arrowleft","","true","0","0","300","1000","[""0082_N1000_K0300_CLIQUE"",""0001_N1000_K0300_NOCLIQUE""]"
"","","","","","audio-keyboard-response","73","140404","0.0-48.0-0.0-1.0","","null","audio_feedback/right/coin01.mp3","null","","","","","0","0","300","1000","[""0082_N1000_K0300_CLIQUE"",""0001_N1000_K0300_NOCLIQUE""]"
"","","","","","canvas-keyboard-response","74","145059","0.0-49.0-0.0-0.0","","3383","","arrowleft","[723,935,86,446,520,524,79,184,874,856,189,164,563,100,824,729,70,454,160,898,161,693,751,81,684,422,629,932,755,553,564,371,121,350,939,900,992,385,169,708,720,49,628,806,923,740,127,942,724,485,919,924,827,458,598,845,853,140,752,335,745,830,936,229,933,802,616,92,608,356,470,414,739,829,278,525,711,461,650,384,266,114,473,128,811,143,5,611,785,21,969,886,487,506,780,658,104,68,791,683,445,6,352,819,982,602,288,190,559,862,993,375,253,626,448,881,85,798,328,351,157,367,645,822,110,773,211,535,194,497,65,733,315,9,451,167,907,254,735,94,3,649,397,841,978,47,999,438,977,807,73,668,625,380,172,916,82,405,477,759,653,551,499,178,910,601,605,279,250,742,33,670,345,412,688,14,536,186,247,7,528,603,753,402,555,865,362,537,894,556,217,410,959,176,425,968,437,777,860,962,583,428,474,984,152,436,389,232,795,805,88,440,249,800,72,26,301,74,488,396,926,255,730,945,789,489,472,541,57,251,872,662,173,359,126,411,244,784,83,394,571,989,159,812,416,627,166,18,677,646,340,297,562,366,638,796,770,482,868,706,667,228,343,615,985,725,925,754,844,534,526,358,566,718,404,308,515,906,123,174,450,826,309,963,947,928,276,147,30,676,312,820,577,252,828,530,267,595,398,990,521,760,549,727,202,220,707,995,344,586,861,767,867,572,609,997,208,533,365,849,640,840,604,899,674,766,814,834,654,871,188,87,332,763,293,542,498,480,647,419,599,719,887,162,76,543,743,481,185,20,31,313,62,746,558,747,701,490,125,843,687,987,66,22,698,905,876,360,269,918,109,639,16,836,463,573,885,596,203,704,748,226,214,909,415,431,423,722,368,393,904,651,736,663,191,296,612,705,154,213,635,505,395,657,468,726,479,38,111,592,656,652,804,239,418,565,179,852,941,19,117,817,908,130,119,998,897,863,223,570,890,741,306,195,561,439,180,518,403,870,979,761,207,155,295,118,46,973,12,268,869,879,976,655,444,967,584,504,187,931,333,225,950,920,37,319,11,107,44,679,821,680,694,771,866,636,582,210,912,585,893,914,467,940,246,709,139,466,320,734,168,980,43,36,738,227,409,93,522,818,299,50,222,53,938,956,204,311,756,715,782,13,354,903,700,183,750,769,631,971,108,105,685,682,691,142,593,783,889,588,702,427,632,927,661,75,981,776,353,501,895,137,221,847,322,455,972,408,975,198,442,272,492,728,902,156,392,310,259,465,716,248,413,764,929,305,447,56,634,289,460,1,99,842,233,545,513,435,648,790,41,406,391,503,257,90,10,348,618,717,986,953,699,291,994,744,407,778,330,692,486,749,527,337,294,946,732,434,532,774,696,531,39,813,546,825,669,578,949,376,495,877,28,273,606,835,386,158,8,390,613,538,133,245,523,334,855,426,857,124,671,96,387,242,710,554,641,792,281,591,483,364,587,264,113,630,846,64,84,970,235,607,808,388,116,516,120,262,363,145,891,290,399,401,762,258,837,372,614,864,961,347,80,930,420,519,331,58,280,215,915,514,336,580,163,42,240,237,378,884,665,765,617,91,60,131,851,788,623,216,206,713,265,878,115,690,148,983,456,153,98,417,810,307,61,218,24,547,314,539,321,63,383,48,548,921,338,793,369,964,283,644,236,95,996,40,850,453,509,697,77,17,302,0,170,298,911,219,292,424,263,144,97,475,452,71,54,459,286,882,67,823,78,199,241,34,557,197,35,859,430,421,243,303,136,896,787,576,816,934,471,974,678,560,695,952,106,103,270,23,349,858,913,960,132,370,277,234,231,666,838,544,224,839,958,341,27,429,381,102,200,271,610,831,2,757,478,512,496,346,432,815,361,484,589,955,781,672,443,316,374,285,775,238,441,182,892,165,122,799,181,621,400,943,511,590,803,901,493,201,149,357,101,112,196,449,52,151,832,714,433,801,171,988,922,937,779,304,768,300,643,275,642,568,29,32,957,948,89,274,848,457,138,502,809,797,917,965,135,575,318,150,192,622,637,282,833,758,256,579,574,552,146,517,373,494,324,675,633,209,260,597,382,540,567,284,673,205,464,966,888,175,25,342,731,317,15,327,325,737,177,339,944,875,69,500,873,594,261,323,476,600,772,786,794,45,134,954,664,721,141,686,51,991,462,287,883,508,193,619,55,355,59,681,951,329,569,377,660,4,581,880,507,712,326,469,129,620,689,659,854,379,624,703,230,550,510,212,491,529]","arrowleft","","true","0","1","300","1000","[""0006_N1000_K0300_CLIQUE"",""0099_N1000_K0300_NOCLIQUE""]"
"","","","","","audio-keyboard-response","75","146044","0.0-49.0-0.0-1.0","","null","audio_feedback/right/coin01.mp3","null","","","","","0","1","300","1000","[""0006_N1000_K0300_CLIQUE"",""0099_N1000_K0300_NOCLIQUE""]"
"","","","","","canvas-keyboard-response","76","148177","0.0-50.0-0.0-0.0","","794","","arrowright","[834,888,50,473,645,504,245,336,961,500,190,127,300,191,147,515,309,646,392,369,160,680,956,732,815,625,843,704,274,456,614,229,759,981,25,142,760,458,370,14,179,498,375,529,867,890,327,250,773,317,924,21,880,24,673,693,296,312,497,173,110,536,784,425,959,282,609,581,77,117,73,632,103,287,966,722,328,853,416,619,424,542,347,276,161,196,520,752,962,900,189,31,617,342,838,827,820,16,323,310,167,284,32,771,949,933,532,644,754,201,224,747,452,587,716,251,121,901,376,479,13,45,643,665,195,215,911,679,70,446,806,442,513,951,104,559,272,139,770,600,408,905,661,460,915,9,751,764,549,696,164,124,878,884,904,730,325,518,724,700,794,910,141,885,822,610,105,627,740,597,390,417,571,118,228,781,20,506,563,465,765,893,823,733,414,575,303,930,662,10,686,212,256,267,503,891,273,176,767,742,159,302,199,802,222,172,214,655,249,953,940,557,291,925,519,304,239,678,566,702,638,714,870,439,422,612,153,92,208,146,411,939,977,340,971,358,690,863,129,311,628,626,692,181,332,294,894,114,873,464,246,178,270,220,892,776,950,674,999,119,994,135,590,719,107,947,84,102,871,227,860,922,848,91,46,948,589,382,738,238,482,378,120,355,338,418,346,604,841,816,830,431,455,736,350,292,23,577,509,548,511,913,963,957,334,774,728,833,432,39,919,361,290,371,743,243,978,979,467,917,89,801,367,601,650,748,698,193,556,180,209,144,192,78,854,561,217,81,466,647,824,908,516,22,489,43,807,898,348,419,132,920,225,985,112,56,409,883,780,897,535,889,289,322,929,671,998,821,221,481,831,166,34,134,67,567,216,58,640,637,240,681,99,906,938,675,200,954,241,510,729,631,593,877,476,725,57,116,689,664,580,766,187,552,459,262,109,607,271,988,623,845,695,321,899,349,715,400,825,666,205,599,76,478,934,226,984,149,79,990,72,351,436,319,809,307,705,699,345,42,60,27,488,366,377,523,851,945,405,744,630,492,989,403,622,374,97,188,395,721,11,779,554,983,952,362,177,847,3,737,923,859,907,80,658,5,787,59,388,426,359,380,213,28,521,672,386,218,269,718,252,798,775,814,837,965,778,360,202,942,286,100,281,927,447,586,828,868,88,145,7,402,237,683,936,454,659,244,633,40,379,6,337,330,410,298,285,41,839,783,928,428,487,512,976,38,762,440,68,413,125,288,306,710,756,551,758,113,723,62,526,154,553,875,797,968,475,387,429,12,130,343,138,584,785,485,33,486,397,185,54,753,808,210,688,15,757,926,546,914,782,150,864,391,501,51,555,974,451,777,791,18,594,49,789,474,96,301,462,1,175,635,790,308,881,818,969,667,660,279,795,596,726,384,483,182,260,365,87,508,932,98,314,491,363,832,206,634,74,960,404,368,993,495,574,727,435,232,955,531,812,480,517,912,803,496,720,406,47,66,295,711,539,453,434,231,52,248,817,449,708,433,396,373,836,799,90,620,353,935,872,804,810,793,313,65,333,677,461,964,297,53,407,684,786,997,430,320,278,86,527,331,562,448,980,171,257,398,572,545,122,126,140,641,685,259,849,941,663,443,242,869,525,879,389,568,585,268,842,85,903,895,530,128,235,613,75,734,649,916,507,850,183,648,829,155,55,427,450,565,788,573,537,83,254,261,305,283,169,694,534,861,741,713,2,329,874,356,819,354,857,826,203,197,835,538,219,703,352,745,168,805,858,576,595,165,896,615,855,163,316,682,472,344,115,618,437,162,972,94,887,280,541,591,315,484,170,174,341,902,514,372,844,811,111,560,605,258,101,991,385,133,48,236,393,266,194,326,701,796,26,987,800,394,383,533,676,569,255,157,606,412,36,528,918,420,642,494,198,275,876,882,982,992,967,505,909,64,463,108,639,709,603,477,996,592,739,668,421,937,186,712,706,749,544,856,137,570,106,438,61,608,958,598,975,19,653,763,772,755,364,207,444,263,136,522,299,93,768,469,995,30,654,697,234,184,123,886,564,95,158,944,624,457,840,813,524,652,247,588,746,399,943,277,29,651,415,44,578,540,423,233,148,493,670,846,865,543,616,862,656,265,381,156,657,151,499,731,152,335,264,324,4,253,852,761,293,471,35,986,82,470,931,17,69,687,669,636,490,735,792,63,769,37,211,707,357,550,691,204,547,445,131,318,0,583,602,579,973,223,921,441,717,143,230,611,401,866,621,8,71,468,558,946,339,502,582,970,629,750]","arrowright","","true","0","2","267","1000","[""0003_N1000_K0267_NOCLIQUE"",""0034_N1000_K0267_CLIQUE""]"
"","","","","","audio-keyboard-response","77","149164","0.0-50.0-0.0-1.0","","null","audio_feedback/right/coin01.mp3","null","","","","","0","2","267","1000","[""0003_N1000_K0267_NOCLIQUE"",""0034_N1000_K0267_CLIQUE""]"
"","","","","","canvas-keyboard-response","78","151005","0.0-51.0-0.0-0.0","","695","","arrowright","[8,694,147,943,812,383,729,548,64,709,204,120,379,892,56,250,588,192,602,697,132,957,935,394,773,166,508,976,513,734,564,950,391,426,176,160,800,999,539,146,737,901,62,632,726,531,839,846,525,493,399,340,909,687,595,761,847,212,908,956,418,668,762,462,640,980,43,316,914,334,881,496,978,838,451,45,732,833,606,370,644,484,35,805,791,540,143,113,412,857,987,631,592,219,983,98,886,872,899,676,928,541,853,682,649,194,30,81,283,397,543,125,624,20,348,480,609,587,286,177,309,97,706,117,477,669,633,775,655,970,130,700,656,581,303,717,266,343,356,358,93,327,271,446,407,852,823,193,705,642,699,647,703,118,781,444,740,415,629,837,753,579,366,965,68,87,475,641,465,947,827,578,959,845,174,420,163,722,91,698,47,787,42,862,457,3,799,424,11,411,471,637,942,253,509,468,650,803,248,612,903,6,515,237,769,929,817,695,611,614,816,712,387,945,731,110,757,481,95,869,707,375,523,367,26,251,209,589,245,934,661,238,52,502,274,450,438,256,828,944,152,357,988,900,183,536,363,822,866,878,843,79,739,202,820,873,410,122,982,459,952,499,904,848,428,621,802,670,925,792,735,142,887,888,599,77,302,2,281,636,19,307,808,771,946,584,458,74,877,128,556,400,841,891,330,913,208,384,512,506,534,728,810,264,14,568,567,985,793,463,467,276,955,907,898,804,55,300,675,748,44,842,630,325,232,537,916,974,521,890,292,287,141,48,489,9,851,456,41,593,247,491,377,948,586,196,667,986,447,57,569,689,528,269,880,485,189,473,214,104,186,623,270,319,254,296,941,318,347,470,794,279,18,215,33,648,826,796,953,89,272,179,345,923,765,386,829,107,535,684,503,666,136,342,971,164,896,580,607,337,313,402,685,574,338,874,22,378,328,716,646,230,37,393,58,206,429,490,168,4,211,912,388,29,553,139,596,75,895,331,228,265,374,21,918,154,96,696,433,364,939,786,522,7,50,836,396,559,76,733,252,924,267,776,197,977,597,25,858,220,15,185,162,879,99,861,911,863,625,198,555,772,563,979,996,453,683,229,275,486,145,764,741,244,603,442,782,518,321,70,875,487,821,69,109,454,207,725,746,161,844,504,359,246,350,385,678,435,294,910,779,713,949,571,182,261,280,439,720,801,226,585,301,533,249,605,557,806,681,341,626,105,590,464,114,620,138,131,436,355,16,783,558,63,312,336,404,643,398,529,116,437,774,798,566,693,544,951,258,432,479,972,691,295,662,449,223,997,894,171,144,216,406,284,218,165,195,755,159,46,34,217,40,172,478,744,205,158,777,789,273,150,201,17,507,181,5,362,277,82,664,173,591,112,86,610,674,937,760,814,718,500,360,61,461,711,998,622,224,831,813,767,815,545,100,549,686,688,389,882,627,889,0,992,701,577,905,333,135,514,354,766,830,990,743,129,583,876,993,282,203,885,222,414,314,672,115,425,723,371,71,84,455,495,860,381,322,756,257,170,671,140,797,241,635,724,28,547,210,178,538,759,710,938,927,421,54,361,72,403,290,369,199,576,236,510,850,692,380,137,727,652,242,227,255,498,308,231,298,991,156,615,884,335,519,663,32,967,867,742,351,352,233,59,78,573,401,225,497,825,532,989,299,187,474,749,788,53,111,657,785,575,184,619,67,153,832,651,811,835,527,565,964,594,83,628,200,119,546,526,38,963,708,235,329,304,730,572,469,561,745,27,102,897,719,419,289,645,868,476,390,961,346,994,690,36,859,434,24,931,263,893,750,677,807,262,542,127,39,608,770,353,221,126,133,511,758,659,940,155,784,517,954,673,763,430,840,933,416,239,12,915,616,10,883,259,617,103,440,1,408,600,930,958,240,94,260,917,960,864,865,926,962,23,778,382,966,854,373,372,188,31,638,704,721,101,409,562,560,747,445,90,190,73,550,80,365,349,51,323,849,317,88,604,148,395,392,483,243,524,856,443,639,326,702,320,780,213,460,60,288,906,315,278,981,552,306,121,613,922,855,516,106,634,332,736,932,658,417,285,920,494,310,85,751,902,431,234,92,653,123,305,108,660,790,520,376,824,752,167,134,501,482,618,492,180,472,344,175,601,984,919,969,311,582,324,973,124,151,654,413,680,448,157,936,921,368,768,291,149,466,427,554,968,268,297,293,65,505,488,169,423,738,422,49,714,975,441,818,452,665,598,809,66,819,570,405,995,871,530,679,13,754,870,551,191,715,339,834,795]","arrowright","","true","0","3","267","1000","[""0090_N1000_K0267_NOCLIQUE"",""0079_N1000_K0267_CLIQUE""]"
"","","","","","audio-keyboard-response","79","152004","0.0-51.0-0.0-1.0","","null","audio_feedback/right/coin01.mp3","null","","","","","0","3","267","1000","[""0090_N1000_K0267_NOCLIQUE"",""0079_N1000_K0267_CLIQUE""]"
"","","","","","canvas-keyboard-response","80","153736","0.0-52.0-0.0-0.0","","624","","arrowleft","[904,518,687,517,917,476,14,54,538,168,925,478,614,738,883,959,735,863,36,386,224,77,832,316,577,607,465,672,359,281,788,725,380,997,368,861,637,342,842,958,741,789,147,808,279,604,349,443,139,486,722,744,172,146,991,675,283,979,107,777,780,167,694,304,108,269,994,553,48,398,200,156,621,869,403,490,449,736,82,131,656,270,875,72,583,668,818,29,466,862,30,931,377,993,498,250,642,363,86,138,564,129,868,916,762,66,346,93,67,154,663,980,596,920,487,992,311,947,310,930,751,829,659,830,507,934,314,265,785,341,284,468,201,655,598,977,622,520,878,424,887,118,646,254,485,92,779,981,618,953,975,989,575,419,792,558,187,195,956,638,873,474,193,805,24,151,249,794,584,972,506,915,142,946,196,758,292,51,753,619,211,444,45,7,798,697,437,763,678,787,990,264,338,860,429,567,921,962,480,654,78,144,39,752,940,712,140,388,784,213,761,611,428,251,626,378,624,397,963,186,513,204,362,872,910,87,245,65,253,748,233,634,855,343,332,536,530,56,101,718,345,679,812,708,391,850,461,411,442,740,660,661,242,21,420,395,529,491,729,320,0,602,640,519,401,717,252,125,299,43,427,713,616,81,399,908,823,569,681,73,516,374,688,839,617,561,266,834,813,545,282,261,824,658,438,509,170,899,79,911,124,396,881,707,750,739,17,641,329,623,70,333,3,909,795,982,730,944,945,586,183,209,714,983,454,961,50,202,458,246,293,510,321,326,515,653,52,74,811,88,665,865,566,746,847,159,864,701,866,286,194,149,351,711,657,413,895,274,214,59,699,747,676,629,235,102,203,547,884,369,880,867,799,339,998,97,80,467,755,846,527,372,460,275,8,885,141,464,835,919,69,495,350,721,132,969,472,40,405,98,803,230,106,770,435,469,544,828,581,955,723,436,760,951,882,650,876,743,317,782,630,83,122,68,822,941,60,247,180,188,720,315,647,425,592,418,382,696,407,189,134,160,503,973,724,546,613,968,356,639,179,297,402,459,104,819,609,404,705,548,355,692,851,103,228,896,1,258,966,192,115,457,709,986,256,325,815,197,31,432,901,957,559,236,248,290,145,757,84,481,155,764,923,37,357,939,664,28,560,136,383,625,737,473,105,479,906,57,255,943,890,716,610,894,671,927,41,999,580,543,775,612,393,331,542,38,759,305,23,76,375,971,554,489,889,2,113,384,552,133,693,749,731,63,191,416,367,879,831,164,207,169,47,244,499,857,61,514,259,177,99,599,441,497,163,539,776,988,5,870,278,291,240,117,796,728,898,220,210,928,674,571,833,854,143,964,704,838,313,237,371,742,766,455,96,563,633,816,32,620,778,807,576,390,334,938,95,606,415,285,531,502,952,175,301,171,109,603,810,698,394,781,804,347,440,157,288,897,446,733,328,918,222,505,4,184,689,158,922,303,227,572,680,309,631,16,126,453,935,585,263,450,137,933,9,422,976,597,20,431,409,470,591,936,280,18,430,462,10,756,551,820,526,344,856,535,212,241,75,46,13,215,231,322,970,161,223,148,771,900,165,632,635,94,849,174,352,508,271,300,217,965,848,511,541,605,627,669,594,686,905,272,135,643,327,340,260,715,366,71,521,121,562,53,651,615,589,190,365,421,600,574,128,533,111,318,417,859,381,754,493,218,389,568,670,336,477,773,49,323,91,308,522,524,913,557,843,555,6,25,239,578,100,276,26,525,112,447,412,173,484,496,996,790,549,974,768,257,537,488,727,410,33,85,540,302,494,89,482,950,912,445,745,852,287,682,504,127,55,110,683,379,423,22,475,929,556,793,463,181,765,198,27,937,573,772,206,914,783,732,666,534,15,582,926,706,648,234,960,35,978,439,593,797,595,684,695,348,451,786,809,185,434,590,376,501,652,700,370,587,353,845,492,677,199,216,34,385,858,836,119,153,262,942,19,408,295,471,924,565,166,579,483,827,400,387,452,636,667,532,995,238,267,817,871,12,42,806,448,791,294,844,523,825,219,949,769,176,150,601,406,221,853,967,306,330,719,226,985,392,840,225,726,691,182,814,702,208,801,826,152,821,120,335,987,58,954,268,608,550,90,767,64,893,734,433,837,645,62,205,512,841,588,500,528,800,243,360,891,426,703,802,229,11,116,232,888,685,456,932,361,319,902,984,673,373,358,298,874,354,886,273,907,570,877,178,774,162,644,662,364,649,414,44,114,892,628,690,296,903,123,312,307,277,948,337,130,289,710,324]","arrowleft","","true","0","4","233","1000","[""0039_N1000_K0233_CLIQUE"",""0068_N1000_K0233_NOCLIQUE""]"
"","","","","","audio-keyboard-response","81","154725","0.0-52.0-0.0-1.0","","null","audio_feedback/right/coin01.mp3","null","","","","","0","4","233","1000","[""0039_N1000_K0233_CLIQUE"",""0068_N1000_K0233_NOCLIQUE""]"
"","","","","","canvas-keyboard-response","82","156944","0.0-53.0-0.0-0.0","","1030","","arrowleft","[958,915,588,396,334,731,594,263,519,545,414,276,697,687,32,64,13,360,919,115,174,86,764,812,401,781,349,801,516,721,899,377,609,729,730,469,670,941,901,48,312,808,900,468,405,658,694,133,47,96,557,359,386,791,960,647,217,963,497,931,378,891,132,265,186,613,2,392,486,673,769,137,645,905,872,743,75,800,210,854,966,546,258,215,422,705,883,768,610,771,754,544,134,340,92,423,21,849,638,671,306,440,157,143,62,429,809,322,368,314,235,780,648,967,433,903,607,277,971,389,343,279,50,300,717,73,460,690,744,170,354,983,846,325,413,328,362,703,400,219,636,713,980,878,466,551,951,898,935,806,95,135,37,830,799,538,733,595,920,10,361,432,910,502,740,267,897,450,139,531,581,130,458,473,605,162,614,80,17,655,949,550,772,943,269,530,27,674,699,180,787,541,454,6,71,298,532,517,904,818,522,957,366,634,868,184,834,337,236,365,323,59,612,87,639,763,981,496,120,442,4,996,316,815,869,583,146,369,895,199,154,826,464,576,56,572,875,457,398,789,303,965,253,453,603,124,562,281,329,114,424,753,683,284,514,927,288,962,630,894,331,828,621,586,955,29,784,631,832,624,952,407,715,662,795,108,852,922,483,807,155,547,220,777,304,173,54,326,653,874,726,682,793,537,964,604,785,853,383,11,116,827,371,942,803,352,573,495,691,503,623,736,554,831,685,982,482,579,462,209,399,866,580,485,635,775,160,41,257,881,728,512,968,299,177,633,463,315,790,19,672,937,650,884,564,833,122,311,727,574,125,549,734,168,708,499,526,862,902,918,792,111,373,28,929,451,179,78,252,598,709,987,411,821,449,859,402,597,428,651,241,851,707,229,616,232,410,857,51,214,811,212,641,305,508,31,911,619,950,974,358,201,479,632,53,38,860,83,376,669,202,100,751,601,243,409,618,940,237,25,615,286,233,978,990,351,197,527,782,69,926,63,877,668,3,558,46,944,390,242,161,341,646,218,357,129,289,696,534,567,805,244,627,182,416,484,629,441,921,778,515,666,841,704,596,494,452,678,102,61,394,140,385,953,912,127,330,274,213,876,91,637,301,9,907,110,680,774,507,147,702,750,735,275,718,908,12,291,606,387,85,246,82,370,271,587,970,408,837,939,783,194,375,585,533,640,418,767,608,723,89,356,439,565,506,487,719,20,481,119,104,216,491,84,712,353,688,930,250,70,569,81,251,555,755,22,798,459,296,542,758,8,575,948,112,916,455,498,391,796,176,287,317,762,106,521,278,617,773,590,714,313,293,686,599,470,90,308,471,829,227,524,99,642,984,649,415,101,732,660,504,141,224,797,625,924,553,74,153,158,886,802,350,825,543,568,204,529,142,977,873,663,989,419,998,536,384,320,94,552,36,689,913,720,23,917,518,936,223,956,863,867,722,742,492,185,381,347,724,659,259,461,893,539,746,290,879,273,844,268,954,475,706,225,393,766,661,820,374,382,657,437,406,183,446,43,444,870,995,665,118,985,367,493,765,175,993,420,889,226,247,578,804,1,737,149,348,283,644,203,823,474,566,310,65,181,816,166,24,426,123,591,318,676,256,260,148,189,716,643,255,88,152,40,307,249,761,434,238,68,165,976,577,109,788,972,741,126,205,145,505,520,711,26,231,431,342,997,467,230,344,44,55,159,332,404,270,847,540,839,988,412,319,654,602,973,864,548,447,107,786,947,208,35,113,692,710,280,561,840,195,67,748,779,327,695,582,759,909,861,500,589,925,302,336,282,478,850,592,77,855,297,364,946,60,169,167,121,294,593,961,18,333,480,584,738,959,338,57,991,477,164,379,914,192,372,667,207,698,933,822,198,890,770,150,928,675,128,14,794,570,45,339,511,652,887,421,472,992,858,363,681,501,0,979,923,739,871,172,436,969,34,228,200,39,622,836,814,42,523,563,438,490,345,535,397,417,395,187,745,435,845,178,986,144,856,465,206,932,191,245,656,15,427,292,817,151,163,525,528,664,131,824,819,556,882,513,346,248,403,892,838,626,611,628,679,620,388,749,896,79,684,693,725,430,190,295,272,677,222,156,5,842,105,136,445,700,425,309,510,321,760,443,752,254,211,266,103,30,843,880,264,885,221,261,335,448,324,188,810,571,813,560,938,489,757,355,488,865,117,848,559,72,975,97,93,16,52,33,76,240,234,171,239,262,380,509,994,756,945,776,600,193,138,285,98,835,934,999,456,66,196,888,906,58,476,7,747,701,49]","arrowleft","","true","0","5","233","1000","[""0074_N1000_K0233_CLIQUE"",""0067_N1000_K0233_NOCLIQUE""]"
"","","","","","audio-keyboard-response","83","157946","0.0-53.0-0.0-1.0","","null","audio_feedback/right/coin01.mp3","null","","","","","0","5","233","1000","[""0074_N1000_K0233_CLIQUE"",""0067_N1000_K0233_NOCLIQUE""]"
"","","","","","canvas-keyboard-response","84","160083","0.0-54.0-0.0-0.0","","946",""," ","[577,828,205,497,127,590,946,665,109,111,392,115,97,252,253,396,700,768,608,691,893,634,126,915,353,17,806,913,632,144,112,245,533,614,653,747,852,831,548,847,702,118,46,158,39,818,51,749,844,432,20,797,160,175,696,983,498,451,596,510,460,881,278,467,975,172,673,397,729,63,991,268,360,376,799,375,357,905,64,872,699,490,687,870,755,80,646,955,319,546,889,855,743,827,679,99,92,856,733,886,48,987,240,440,539,860,995,142,146,611,685,248,390,724,22,553,285,902,486,67,239,492,901,291,382,643,359,152,502,976,181,311,836,949,529,301,62,343,628,850,793,713,140,833,391,271,299,651,604,194,911,801,800,945,654,762,993,221,38,575,231,228,14,769,423,250,823,619,204,429,242,630,753,960,936,555,395,616,305,419,12,187,538,927,719,1,909,707,6,259,613,280,344,837,592,948,477,954,858,931,425,591,500,602,489,977,520,740,922,326,655,452,817,808,692,57,275,794,422,18,277,16,75,29,541,341,973,519,547,958,61,513,807,660,371,767,708,841,335,867,667,986,199,903,926,176,652,785,65,559,765,493,756,636,182,607,627,821,672,641,471,149,377,778,939,822,303,73,965,405,298,582,315,557,521,534,781,482,759,345,141,55,455,635,312,198,88,727,748,143,773,281,324,374,874,843,528,155,380,810,243,53,556,322,981,217,644,224,780,96,585,663,325,370,711,294,813,930,308,284,574,327,726,50,752,121,525,287,161,717,758,647,982,997,177,412,424,550,5,85,134,349,314,86,666,468,321,434,443,721,81,444,162,629,454,300,536,249,478,693,332,989,737,101,150,686,456,573,244,904,802,504,554,689,355,409,518,715,972,93,754,272,623,56,998,98,21,924,741,279,892,35,624,610,338,888,420,381,861,220,130,682,876,191,66,286,959,292,427,706,677,157,472,197,261,505,32,337,952,722,681,838,233,701,705,999,580,545,579,209,83,601,379,213,859,645,165,887,499,495,237,329,267,864,367,215,941,264,154,469,544,782,953,506,207,120,36,295,59,459,3,974,670,484,820,270,216,458,832,487,15,333,26,678,410,24,188,256,661,597,128,43,501,296,76,448,535,918,961,108,638,824,761,445,151,710,928,402,223,584,49,569,387,414,219,744,346,107,873,736,258,214,439,11,712,202,132,393,988,457,307,570,488,796,771,980,943,125,664,283,869,605,348,129,316,10,609,871,323,340,566,189,74,138,568,558,537,846,676,776,436,304,417,334,879,770,33,543,907,28,690,668,464,79,631,413,714,694,195,845,775,289,363,262,19,90,232,9,453,260,618,100,964,588,342,431,226,306,470,979,184,84,70,880,593,884,358,849,914,476,540,159,331,41,89,491,483,474,675,760,803,658,784,745,183,956,388,865,122,403,400,919,113,164,944,947,626,763,446,466,883,551,567,309,255,735,882,703,897,526,809,336,825,723,612,475,69,932,671,58,52,302,389,819,562,637,697,362,933,212,633,2,517,835,814,131,356,210,788,71,732,200,594,839,938,485,900,648,790,742,385,783,433,795,650,728,136,153,123,789,94,720,147,411,166,47,966,868,757,621,571,398,598,4,404,450,266,969,463,857,34,508,950,862,970,428,815,82,906,615,116,103,227,996,531,179,225,552,967,110,586,940,951,87,622,426,211,564,415,600,620,208,167,910,174,934,480,196,0,383,774,441,890,365,549,560,241,587,234,135,511,186,105,514,840,561,716,688,114,124,963,320,921,772,863,37,787,408,251,273,985,352,276,8,603,920,885,674,572,515,347,779,522,791,78,532,530,106,595,509,386,246,236,27,704,180,254,811,351,481,657,925,830,957,804,31,328,369,230,523,263,25,310,642,288,7,447,13,805,766,576,449,465,77,739,792,104,916,877,317,750,656,201,695,139,971,265,171,542,984,192,190,853,170,238,185,406,416,507,709,649,102,462,364,669,899,235,297,30,994,777,60,68,640,962,45,798,354,746,44,751,812,206,40,23,173,435,524,718,912,479,639,473,834,222,683,394,494,496,282,942,384,42,563,617,461,866,731,516,589,891,156,578,330,72,350,625,583,923,313,193,894,937,247,848,698,565,407,163,764,680,399,438,290,339,203,935,372,168,992,137,875,54,437,148,430,908,896,917,274,968,734,816,826,269,503,978,91,418,512,117,366,662,659,178,218,95,990,293,599,257,581,725,851,878,929,606,738,730,895,854,133,119,401,368,898,361,786,169,829,442,421,373,842,318,684,527,378,229,145]","arrowleft","","","0","6","217","1000","[""0016_N1000_K0217_CLIQUE"",""0057_N1000_K0217_NOCLIQUE""]"
"","","","","","audio-keyboard-response","85","161184","0.0-54.0-0.0-1.0","","null","audio_feedback/shuffles/shuffle01.mp3","null","","","","","0","6","217","1000","[""0016_N1000_K0217_CLIQUE"",""0057_N1000_K0217_NOCLIQUE""]"
"","","","","","canvas-keyboard-response","86","164169","0.0-54.1-0.1-0.1","","1811","","arrowleft","[882,458,17,24,694,689,377,752,699,685,578,49,544,999,746,600,451,825,151,785,496,35,854,500,298,434,379,764,214,724,244,125,528,832,625,583,641,750,973,461,535,256,191,692,157,246,489,581,690,616,89,337,169,33,909,162,958,469,977,741,721,574,438,678,159,924,499,533,845,350,866,482,993,192,261,602,457,62,788,596,81,325,127,342,911,823,193,923,664,635,759,898,463,228,14,72,681,222,287,727,667,864,148,553,189,462,442,388,97,536,70,54,326,152,206,947,996,28,358,93,548,969,538,733,441,878,580,142,796,918,762,37,135,82,58,816,722,799,662,118,889,656,937,150,840,661,335,978,805,643,366,177,361,718,416,566,988,617,464,974,793,943,146,830,230,181,173,440,119,868,949,265,99,765,729,22,445,232,833,391,311,198,954,202,431,646,899,75,429,454,824,760,348,405,204,65,109,63,453,59,413,908,164,197,590,714,387,50,655,176,802,41,781,205,567,867,900,172,579,39,439,675,990,865,817,121,686,168,965,254,186,312,309,291,940,545,128,32,820,660,306,687,30,424,5,73,356,78,263,421,349,935,502,747,691,200,308,479,568,742,362,185,10,673,242,790,647,980,670,233,92,873,525,96,363,208,811,184,271,897,422,239,343,167,86,524,31,716,392,930,494,295,42,591,819,101,12,307,267,755,294,236,390,970,517,992,585,962,9,225,786,623,38,364,512,174,240,612,842,459,640,227,783,334,194,141,639,893,201,740,355,707,190,789,149,20,554,87,518,382,913,905,221,120,701,381,595,932,477,398,123,931,599,456,238,605,179,426,712,704,942,249,448,565,975,290,323,976,659,603,376,400,259,649,527,490,709,132,315,45,353,720,373,491,804,821,901,719,257,16,631,396,731,144,126,963,165,107,801,340,593,478,408,437,983,966,367,332,886,837,968,371,415,638,654,425,560,706,47,245,289,329,305,220,702,849,555,575,351,739,609,888,648,736,404,933,916,497,808,52,302,835,863,473,143,910,328,903,798,710,115,370,985,871,998,365,163,885,972,11,161,870,114,807,711,56,944,511,117,540,672,243,812,407,665,199,420,492,995,986,266,111,530,402,195,106,129,360,98,218,570,124,604,285,444,88,508,412,734,430,66,562,474,818,264,768,642,951,383,346,561,539,153,470,333,450,927,275,936,61,69,522,147,506,547,622,515,322,850,485,384,541,881,883,406,418,880,48,140,874,601,278,262,684,615,696,44,588,859,372,471,84,417,758,749,679,354,187,598,851,814,428,827,803,563,447,452,513,534,403,777,862,414,748,260,251,158,925,2,576,700,210,607,872,626,183,321,761,732,630,610,134,876,276,166,619,25,116,828,697,552,480,465,196,211,64,677,838,810,104,929,779,277,319,960,572,23,907,21,331,270,608,139,912,991,628,71,891,894,858,592,543,374,460,269,877,484,300,582,0,34,160,130,113,780,215,235,774,268,577,303,571,521,620,436,857,556,1,652,941,258,546,279,301,800,40,467,703,216,217,112,797,831,272,91,725,730,754,745,520,486,683,981,495,982,503,476,627,286,13,466,324,103,85,934,756,952,483,102,314,782,6,738,737,347,313,397,4,138,19,455,922,26,180,843,122,368,728,989,557,288,68,919,948,514,621,15,209,137,77,695,318,887,847,594,100,920,212,682,336,487,74,651,178,274,284,846,338,955,468,856,507,634,791,501,705,409,46,650,427,320,815,516,787,3,597,90,51,252,327,751,890,895,219,926,848,573,145,386,310,7,357,606,950,792,110,829,395,917,644,997,822,399,253,559,296,669,234,795,136,229,411,773,946,766,813,967,537,953,255,432,60,915,156,345,472,339,27,241,861,203,449,375,613,945,283,170,344,855,171,794,498,292,105,879,618,956,549,961,906,676,869,385,987,693,213,281,778,826,532,645,735,884,657,984,509,629,226,359,914,928,744,763,674,853,247,393,423,636,558,939,994,523,717,55,587,57,8,475,273,938,248,775,834,526,904,505,550,519,394,108,223,611,43,94,896,250,971,708,836,688,237,809,446,723,666,784,769,551,293,67,839,317,852,589,979,743,175,841,715,224,36,493,316,380,860,772,297,753,29,389,231,564,481,18,504,529,410,207,633,80,959,757,133,586,726,663,844,806,299,510,658,155,378,488,79,419,569,53,182,433,76,957,653,902,637,304,531,713,282,95,614,131,892,776,875,154,767,771,698,443,668,435,542,341,369,680,584,671,83,330,770,921,188,632,280,964,624,352,401]","arrowleft","","true","0","6","217","1000","[""0016_N1000_K0217_CLIQUE"",""0057_N1000_K0217_NOCLIQUE""]"
"","","","","","audio-keyboard-response","87","165165","0.0-54.1-0.1-1.1","","null","audio_feedback/right/coin01.mp3","null","","","","","0","6","217","1000","[""0016_N1000_K0217_CLIQUE"",""0057_N1000_K0217_NOCLIQUE""]"
"","","","","","canvas-keyboard-response","88","167091","0.0-55.0-0.0-0.0","","745","","arrowleft","[834,620,374,535,996,323,746,92,989,752,824,370,876,649,924,180,859,800,404,808,933,200,489,926,628,537,243,461,613,100,116,766,481,373,192,222,667,691,209,827,194,226,37,284,407,118,338,101,585,327,455,631,220,724,785,82,917,683,9,971,946,371,348,860,890,972,154,870,491,109,630,252,43,362,899,775,230,966,263,120,334,660,878,572,294,131,655,757,848,330,358,300,225,685,945,385,929,402,424,978,462,973,745,611,623,713,419,799,592,196,272,841,829,770,930,832,193,229,389,962,232,577,990,761,234,765,174,275,637,90,163,393,576,8,857,807,865,351,450,157,237,25,295,487,747,396,443,521,693,666,886,435,913,103,547,682,714,634,41,431,415,616,488,181,283,46,830,392,635,741,34,63,55,892,922,676,276,976,85,379,139,771,607,806,533,246,165,321,734,11,844,123,825,889,187,26,531,65,514,464,282,485,418,363,13,612,386,27,352,337,159,817,210,365,333,35,57,709,884,69,1,314,79,127,176,710,849,84,149,891,915,845,29,342,835,736,445,936,733,707,908,822,290,332,534,399,814,982,621,573,477,347,383,306,737,575,316,548,838,789,861,151,313,434,147,556,702,659,315,429,39,87,293,719,475,422,119,626,130,212,206,546,700,208,320,938,114,567,199,5,442,198,110,264,265,377,818,740,242,675,755,901,356,525,466,749,826,855,18,671,12,674,473,368,168,787,581,480,467,647,420,644,432,23,117,528,668,722,756,604,311,458,221,30,944,712,916,881,554,3,957,71,191,444,549,249,416,304,478,324,880,961,690,448,931,44,632,526,750,735,839,919,751,580,809,956,281,953,250,720,703,507,395,868,842,506,609,941,189,788,815,133,125,476,894,245,10,340,598,162,774,672,126,970,108,51,302,95,436,410,550,15,769,687,960,185,738,988,688,166,998,987,574,897,708,689,721,128,854,792,470,223,952,888,651,920,504,852,786,219,717,372,530,449,837,77,781,614,460,695,812,947,341,964,346,140,28,568,603,68,951,783,686,759,388,269,767,784,646,527,279,267,345,496,397,570,510,218,164,896,885,942,375,158,408,706,678,768,186,728,532,955,566,875,669,49,497,959,883,684,909,559,238,152,381,921,350,772,357,380,145,60,24,874,83,602,515,638,89,654,907,524,412,977,452,833,879,565,803,813,968,54,201,286,48,244,291,439,499,148,160,457,578,820,427,156,75,113,622,697,353,296,80,336,716,840,183,511,918,974,202,698,509,670,271,132,846,579,161,307,699,927,657,701,391,33,564,204,329,88,836,228,584,902,308,115,595,492,453,382,561,76,483,662,937,454,925,150,705,503,247,796,664,241,319,596,14,545,56,583,195,216,704,625,981,364,129,251,409,498,943,873,553,169,207,560,328,715,618,828,303,239,590,17,601,694,490,19,599,923,146,261,843,278,484,7,433,98,804,301,692,325,298,729,847,177,763,58,851,62,954,636,571,384,173,932,980,273,361,975,661,421,544,2,138,950,390,542,280,479,731,650,81,540,354,502,994,274,790,106,224,451,378,963,986,523,227,782,172,608,582,777,939,317,190,780,289,557,21,47,911,155,423,983,124,213,231,500,513,414,725,992,406,760,538,882,494,914,773,758,794,898,326,256,394,677,486,376,681,53,673,871,555,967,482,753,137,182,188,991,411,816,468,739,563,67,606,744,417,895,516,64,86,903,175,387,493,679,112,539,446,764,856,508,403,742,405,135,339,864,270,597,72,569,143,45,512,558,656,529,447,299,236,253,73,862,248,322,170,136,369,205,50,762,505,437,94,866,658,696,171,197,517,287,214,810,167,70,401,536,748,59,893,821,743,16,318,823,949,779,331,935,754,292,624,940,266,93,831,665,778,906,663,20,887,723,31,255,472,134,551,858,6,343,541,52,233,400,979,711,997,905,254,640,615,801,948,605,519,22,520,459,934,912,594,877,0,589,645,795,984,495,501,142,335,438,802,474,312,425,38,310,40,869,441,465,793,680,355,398,791,184,797,428,727,42,798,587,999,359,619,463,74,471,61,4,258,593,105,430,518,259,543,366,78,260,552,819,235,257,122,178,629,426,730,600,32,904,718,99,440,91,910,277,610,285,591,297,853,102,413,153,588,648,240,104,586,144,965,627,863,617,642,203,360,121,928,732,36,211,111,141,522,653,469,562,262,993,985,305,900,367,309,97,639,217,633,96,288,107,66,995,344,867,652,349,850,726,811,805,641,872,969,958,456,179,215,776,268,643]","arrowleft","","true","0","7","217","1000","[""0038_N1000_K0217_CLIQUE"",""0037_N1000_K0217_NOCLIQUE""]"
"","","","","","audio-keyboard-response","89","168085","0.0-55.0-0.0-1.0","","null","audio_feedback/right/coin01.mp3","null","","","","","0","7","217","1000","[""0038_N1000_K0217_CLIQUE"",""0037_N1000_K0217_NOCLIQUE""]"
"","","","","","canvas-keyboard-response","90","169874","0.0-56.0-0.0-0.0","","629","","arrowright","[549,151,520,847,739,776,129,22,998,527,155,48,947,477,669,831,963,321,817,483,744,712,621,51,969,76,415,67,737,279,713,325,405,282,861,12,981,422,905,913,46,440,995,89,71,23,532,332,836,450,501,16,631,498,888,948,745,467,646,465,752,763,64,392,774,277,175,896,902,612,90,810,437,411,661,635,429,961,208,671,372,77,720,590,779,588,41,68,210,194,940,538,916,517,42,185,96,926,488,892,790,61,693,684,345,566,999,264,378,652,791,150,323,242,595,301,787,560,490,142,130,485,773,353,391,4,126,930,925,261,453,169,725,931,849,968,108,289,431,557,815,644,606,866,982,491,570,835,354,40,824,161,299,206,379,270,634,593,136,14,338,856,458,457,311,248,650,409,374,111,147,214,740,380,197,797,906,211,232,988,245,977,613,616,159,738,917,607,481,55,838,79,5,290,347,326,91,978,167,581,867,121,160,949,153,80,348,841,316,65,890,497,72,492,832,439,304,751,438,760,35,809,726,708,443,956,230,346,914,699,335,811,404,427,907,692,445,525,418,70,384,118,628,889,469,976,686,658,425,884,49,375,52,149,710,180,747,736,637,263,667,101,767,223,802,869,545,505,502,681,614,874,816,94,352,166,855,371,639,755,43,190,138,298,873,423,550,260,119,344,594,953,255,648,140,924,672,449,203,327,324,689,456,668,891,718,970,139,226,45,643,13,574,390,761,19,244,585,900,116,236,17,546,199,717,853,589,272,177,875,823,247,509,954,858,471,510,398,996,15,653,133,571,862,851,854,704,967,915,225,389,113,530,828,622,315,461,563,98,833,152,561,677,407,539,852,578,399,2,59,419,377,395,287,784,579,302,333,965,649,748,624,654,406,632,274,941,252,986,32,336,951,53,291,962,857,895,86,665,258,494,765,125,280,678,558,911,830,762,417,442,599,387,786,627,573,294,202,687,215,685,865,219,587,31,500,408,603,822,727,97,618,680,342,114,526,512,909,732,221,806,207,825,901,112,54,818,179,240,771,385,846,300,124,623,174,433,625,251,26,355,178,412,596,195,339,814,943,934,750,473,664,143,394,959,235,428,233,985,388,330,759,420,318,556,939,972,312,85,757,44,482,95,863,188,511,709,897,504,462,559,62,7,271,234,636,386,696,18,756,413,868,276,87,421,716,171,586,224,598,714,243,990,584,922,812,131,292,723,807,81,780,60,361,220,542,605,898,938,265,974,507,754,69,470,729,706,189,495,499,474,942,303,63,666,296,281,837,721,783,84,641,362,99,283,663,800,555,565,929,9,592,611,36,655,222,145,819,47,157,6,397,933,103,543,608,472,475,21,788,493,994,464,785,104,363,989,181,306,436,100,238,679,633,885,936,908,444,459,880,519,960,259,102,799,944,503,137,228,827,128,886,887,350,798,29,766,410,451,971,808,734,691,401,984,979,932,360,842,923,619,275,134,547,478,792,365,764,912,870,528,334,743,162,28,25,803,782,991,514,610,452,165,146,373,711,733,945,673,414,182,966,707,583,33,826,191,10,266,878,237,170,683,168,705,548,580,337,879,554,935,676,382,484,845,919,489,604,305,553,638,629,813,454,620,702,675,349,804,789,575,239,308,319,426,544,441,506,513,132,551,600,957,341,682,775,1,476,254,871,535,141,860,697,402,540,568,193,876,479,229,715,227,106,569,486,107,899,331,351,928,448,183,369,688,200,135,518,74,536,640,434,564,602,24,257,435,844,834,117,11,376,288,698,724,172,701,368,572,703,840,758,848,204,148,268,980,777,839,295,657,903,187,273,322,645,105,975,37,722,983,778,56,749,883,567,910,109,20,651,205,278,246,328,213,562,662,27,805,127,359,310,184,455,34,173,480,262,770,460,522,920,997,850,700,320,952,746,617,872,123,430,256,88,918,313,357,192,529,577,144,432,176,882,293,367,795,864,0,241,552,400,396,537,904,250,317,218,894,216,358,8,58,521,209,231,921,314,284,487,576,366,642,508,370,893,466,656,626,3,772,950,343,463,829,217,609,601,30,383,329,516,196,447,93,647,38,859,992,731,820,253,531,694,768,496,955,524,198,50,468,993,801,796,515,541,156,424,115,973,741,533,307,269,297,659,78,446,267,821,92,286,695,793,597,120,285,927,212,690,674,66,615,340,730,75,843,57,249,719,769,987,82,122,158,393,403,958,670,937,877,186,591,660,794,416,753,781,364,73,154,110,964,630,356,728,381,742,534,309,164,582,881,83,523,946,39,735,201,163]","arrowright","","true","0","8","200","1000","[""0062_N1000_K0200_NOCLIQUE"",""0033_N1000_K0200_CLIQUE""]"
"","","","","","audio-keyboard-response","91","170865","0.0-56.0-0.0-1.0","","null","audio_feedback/right/coin01.mp3","null","","","","","0","8","200","1000","[""0062_N1000_K0200_NOCLIQUE"",""0033_N1000_K0200_CLIQUE""]"
"","","","","","canvas-keyboard-response","92","172650","0.0-57.0-0.0-0.0","","597","","arrowleft","[626,967,662,613,854,232,29,748,657,287,126,152,836,308,964,201,618,713,756,400,760,128,89,157,412,334,114,168,700,253,371,343,311,151,978,795,231,902,518,261,940,502,900,720,600,421,134,917,852,975,903,206,945,699,25,789,13,312,655,149,834,785,596,692,175,335,11,638,248,494,240,87,552,557,669,453,788,861,341,182,875,794,390,791,572,140,981,260,331,676,743,138,625,422,53,296,170,950,190,818,979,244,726,708,910,681,160,628,693,560,988,590,953,949,804,592,162,356,933,588,42,373,705,452,512,567,219,821,960,819,912,642,922,110,721,124,497,753,579,719,796,316,974,277,262,221,537,74,897,477,883,56,476,197,391,1,3,492,480,935,919,564,328,580,962,184,965,539,288,207,21,141,428,632,451,872,895,336,458,526,179,718,324,770,793,309,239,999,384,690,52,436,566,438,189,332,245,514,333,68,661,367,880,426,982,571,913,816,137,192,7,516,154,612,881,666,196,123,934,125,783,454,58,77,65,16,847,751,117,736,294,663,70,272,781,871,828,435,860,73,372,878,432,462,54,587,156,658,668,199,47,475,395,555,80,709,259,133,91,737,209,762,178,143,18,381,2,678,59,275,636,629,521,925,517,326,944,57,606,12,301,631,893,675,806,589,573,405,176,236,858,81,402,498,378,187,584,963,225,540,508,437,503,509,527,17,298,9,876,773,842,185,741,855,203,645,235,660,649,799,265,586,984,485,733,292,845,689,481,593,286,247,891,921,280,511,243,246,830,383,430,153,96,78,909,766,322,84,297,139,506,630,31,109,447,553,307,815,528,786,85,647,798,14,122,270,158,824,439,352,327,108,460,194,445,380,634,320,859,365,515,882,397,873,281,407,504,578,722,868,597,339,389,577,250,609,809,0,688,48,427,314,915,214,88,671,55,725,15,519,674,36,624,822,585,697,841,489,989,959,132,914,274,148,121,472,857,920,43,938,835,538,599,457,621,234,181,263,906,652,714,839,825,706,758,299,997,393,602,147,864,283,107,279,653,742,131,464,115,116,505,60,69,558,8,474,396,469,826,932,879,810,291,202,569,368,191,952,701,672,898,127,145,604,366,433,851,846,129,83,256,926,218,941,38,985,222,97,640,544,342,360,398,601,529,388,93,276,387,470,520,727,362,667,739,983,423,376,252,829,732,616,254,867,415,434,948,50,703,724,574,551,800,654,659,45,562,532,344,166,565,459,576,611,406,329,792,987,942,750,583,916,228,424,966,752,764,970,169,64,269,493,112,865,643,738,268,536,853,780,351,862,556,446,266,849,100,595,969,892,991,317,385,461,958,691,165,582,26,757,321,772,90,980,817,614,418,425,848,183,79,448,71,167,856,491,763,996,704,870,746,548,306,495,403,635,278,541,404,337,807,304,931,394,408,315,465,463,850,215,323,546,359,707,820,410,650,375,200,310,496,340,603,242,930,694,257,775,686,204,30,353,345,968,501,683,928,971,484,338,716,500,227,5,251,771,49,651,749,927,730,696,534,19,684,838,782,374,670,937,357,51,956,349,35,811,358,392,118,37,665,27,467,442,774,444,998,995,409,419,212,318,205,363,346,369,466,282,92,67,723,622,172,769,637,986,295,111,180,685,639,6,273,641,679,61,711,802,211,734,34,993,330,379,535,94,355,302,813,923,20,563,778,237,677,420,32,617,620,761,908,687,904,173,195,293,135,605,731,487,755,549,889,450,869,507,547,561,797,177,354,827,805,416,531,226,99,456,106,429,76,831,161,174,747,776,840,837,150,350,163,499,619,961,803,918,103,744,977,417,300,545,598,24,644,702,542,224,610,943,44,490,468,570,120,105,533,990,801,217,510,155,364,455,411,213,745,823,884,936,765,754,4,615,648,313,523,136,216,656,790,623,715,885,75,208,973,735,784,305,271,82,238,759,144,768,899,285,896,832,717,210,102,361,957,101,939,550,712,164,843,568,63,994,267,890,673,284,473,230,449,607,399,627,594,525,22,249,833,911,478,370,98,440,325,591,646,530,866,951,894,886,431,241,290,777,486,877,119,543,95,198,401,28,698,976,23,695,901,348,955,581,289,319,482,347,130,844,954,905,142,524,264,887,559,41,814,386,888,72,575,377,255,220,193,513,39,441,62,682,86,863,229,946,608,413,740,787,929,767,554,414,992,382,728,488,303,729,40,223,483,66,947,186,233,104,907,924,33,680,46,633,522,10,710,113,146,258,874,443,808,471,972,479,812,664,171,159,779,188]","arrowleft","","true","0","9","200","1000","[""0098_N1000_K0200_CLIQUE"",""0096_N1000_K0200_NOCLIQUE""]"
"","","","","","audio-keyboard-response","93","173644","0.0-57.0-0.0-1.0","","null","audio_feedback/right/coin01.mp3","null","","","","","0","9","200","1000","[""0098_N1000_K0200_CLIQUE"",""0096_N1000_K0200_NOCLIQUE""]"
"","","","","","canvas-keyboard-response","94","175426","0.0-58.0-0.0-0.0","","565","","arrowright","[990,726,613,601,440,190,519,727,660,607,280,522,999,807,293,851,32,997,578,611,815,115,113,485,385,979,353,445,47,489,87,888,527,375,136,534,934,338,619,79,162,108,499,752,112,679,15,965,331,927,398,25,1,836,837,773,140,333,256,272,437,503,26,267,905,339,118,86,597,274,182,161,327,882,985,363,301,23,645,776,447,911,553,312,128,671,291,978,908,130,935,344,820,947,749,251,263,515,824,770,12,498,149,691,788,531,460,14,962,119,244,617,839,377,61,821,913,661,479,354,565,268,932,766,596,252,731,490,950,294,62,208,459,557,896,734,588,349,640,956,533,446,53,303,810,65,245,357,586,120,967,987,887,629,501,133,332,307,976,135,84,558,544,197,241,172,628,524,204,717,44,681,642,0,615,580,909,907,684,17,472,581,484,593,240,819,159,68,853,638,873,885,627,880,508,311,134,217,261,847,889,804,918,295,929,480,826,626,944,355,469,319,477,603,695,392,930,648,602,539,900,201,468,16,214,782,530,798,111,384,758,735,555,814,857,706,521,676,834,2,167,482,595,487,323,59,546,127,324,975,719,973,760,156,680,450,753,802,395,373,67,439,102,697,835,55,669,9,298,320,998,916,271,868,369,685,441,306,745,682,403,592,625,969,767,337,148,564,250,971,229,568,652,587,981,912,219,507,604,292,786,56,737,18,42,225,696,63,203,875,972,372,964,165,914,878,816,418,117,714,160,364,743,289,424,322,382,647,738,984,378,744,266,883,616,864,421,572,210,563,222,812,186,359,740,224,709,58,704,995,169,892,164,566,881,264,286,103,764,305,213,21,646,138,335,132,720,177,970,863,937,721,893,569,380,800,594,427,101,185,69,166,974,509,470,951,383,799,841,795,313,411,689,859,381,598,633,739,649,584,928,702,917,623,663,658,688,187,842,716,259,840,891,218,991,833,634,742,715,854,762,27,960,154,209,827,434,81,552,803,242,215,104,505,963,777,326,585,265,413,99,662,550,396,255,34,942,342,599,474,796,733,4,283,910,473,8,933,410,96,621,939,192,22,600,831,317,438,269,675,461,235,769,486,158,698,793,637,535,170,48,196,923,75,402,82,805,514,541,105,281,922,35,299,175,780,401,137,925,361,860,43,174,919,866,961,904,672,412,665,350,549,504,692,754,3,179,277,199,624,556,309,494,285,262,823,954,980,343,184,856,497,475,36,346,370,763,895,173,903,114,430,100,379,243,33,789,845,37,57,931,152,843,632,890,50,779,750,765,576,838,636,996,654,761,791,146,422,520,7,315,828,145,231,278,548,713,609,347,870,610,247,304,748,806,416,983,220,977,622,19,404,52,123,902,664,577,321,583,639,526,371,71,612,95,415,643,590,844,772,957,38,813,78,129,884,730,442,516,276,817,296,195,491,781,959,869,808,66,825,406,876,582,443,614,694,348,635,705,248,366,444,687,559,358,641,506,481,236,435,89,822,230,571,126,407,948,29,801,775,832,466,537,13,701,877,428,200,510,683,492,180,941,176,545,207,253,554,397,92,97,328,894,270,787,811,476,310,389,829,163,768,670,106,673,316,390,98,226,536,852,433,237,49,451,54,926,457,288,809,906,425,334,792,746,630,318,656,88,547,488,85,574,659,122,206,465,193,542,901,871,116,76,741,188,287,523,83,921,874,512,771,722,20,711,861,650,376,279,399,107,260,502,194,232,757,667,725,467,570,297,778,356,938,653,110,388,699,677,728,228,850,540,940,216,478,982,454,400,756,500,560,915,221,644,945,147,562,60,993,80,724,239,700,314,899,273,368,797,849,46,463,897,579,109,302,254,212,846,345,91,678,374,275,144,420,432,5,573,712,238,351,538,10,189,409,462,325,183,11,181,608,589,955,458,783,198,282,686,674,591,936,426,657,952,693,419,949,284,453,818,732,729,39,340,495,759,483,528,141,155,707,449,946,391,867,471,862,249,168,191,986,258,920,90,408,124,747,178,543,142,708,452,153,561,257,606,387,223,121,94,886,666,517,150,456,448,74,31,496,924,690,703,202,352,336,620,879,227,423,139,360,330,205,367,290,855,246,718,848,394,41,341,668,953,830,790,493,872,405,300,151,994,618,865,511,605,28,958,211,518,143,723,525,751,417,431,455,77,464,436,655,513,362,794,24,125,943,93,736,988,429,365,898,308,992,532,785,329,45,51,73,6,755,567,651,551,774,386,64,131,631,784,393,968,858,414,710,989,30,234,575,157,966,72,171,40,233,70,529]","arrowright","","true","0","10","183","1000","[""0081_N1000_K0183_NOCLIQUE"",""0022_N1000_K0183_CLIQUE""]"
"","","","","","audio-keyboard-response","95","176424","0.0-58.0-0.0-1.0","","null","audio_feedback/right/coin01.mp3","null","","","","","0","10","183","1000","[""0081_N1000_K0183_NOCLIQUE"",""0022_N1000_K0183_CLIQUE""]"
"","","","","","canvas-keyboard-response","96","178250","0.0-59.0-0.0-0.0","","693","","arrowleft","[46,793,495,8,12,659,197,897,711,183,356,69,906,180,94,247,582,202,609,864,633,986,875,453,548,636,436,182,729,397,952,518,407,741,703,109,154,712,431,835,564,293,317,813,342,290,829,783,653,853,955,625,660,267,288,792,48,851,124,724,916,695,910,989,531,416,491,777,369,915,736,690,641,942,425,35,31,623,878,880,171,939,127,807,524,47,546,201,929,38,128,521,802,130,617,806,406,886,260,790,377,384,81,923,861,928,27,265,311,319,553,837,114,457,28,966,208,187,713,651,261,19,99,362,740,340,867,686,764,42,530,731,781,503,294,477,565,901,519,85,404,866,374,123,577,769,424,675,964,905,139,394,551,594,204,176,268,656,722,339,991,350,455,60,341,434,3,217,492,870,34,930,325,178,632,795,666,639,402,417,103,801,821,560,40,310,982,300,193,29,823,74,615,854,237,238,262,77,419,797,815,410,379,273,904,478,791,174,486,899,840,228,684,607,451,271,762,306,937,820,409,591,761,233,720,959,674,983,55,759,299,696,164,234,443,212,737,938,173,610,90,348,324,943,133,220,540,205,534,502,56,391,533,616,589,909,747,940,718,902,996,389,18,958,30,430,338,371,935,428,973,433,881,805,730,848,331,161,418,214,771,148,893,361,891,408,980,349,448,89,562,999,780,849,998,97,537,248,287,596,413,882,972,59,441,351,450,405,662,642,941,456,213,355,274,167,480,621,141,186,971,172,755,345,694,549,554,264,252,242,275,970,467,913,676,411,452,787,412,698,974,663,401,822,7,106,465,721,993,421,967,414,808,512,375,968,559,366,386,166,574,900,948,257,874,542,753,24,634,466,858,177,329,259,87,403,309,140,984,132,614,628,249,78,255,583,682,118,523,924,61,231,947,515,196,579,828,912,925,810,256,575,437,45,6,162,43,39,709,496,826,298,380,859,20,57,360,353,292,471,147,728,889,817,92,440,75,962,332,884,305,138,707,473,800,279,586,463,727,263,195,142,485,657,285,670,593,64,144,665,98,655,775,395,251,313,169,588,269,381,719,774,364,2,136,680,957,449,843,470,458,773,538,756,965,73,535,576,765,344,581,266,877,643,652,751,116,825,281,544,558,898,1,112,336,354,620,508,536,547,748,499,149,358,734,975,426,150,827,207,525,184,865,595,926,894,945,210,303,587,510,96,146,427,895,997,585,472,216,706,429,794,572,156,312,224,185,517,513,423,868,229,786,469,702,504,483,385,464,291,933,644,647,814,490,597,640,516,979,743,270,569,824,489,879,211,855,327,17,599,514,994,708,725,733,561,86,107,179,626,645,390,717,487,838,691,25,920,852,286,444,934,834,860,153,763,151,637,415,885,365,155,907,382,608,635,799,322,605,918,705,215,922,447,225,5,692,738,850,612,592,51,812,757,91,566,819,21,522,779,501,346,16,438,681,667,754,121,716,613,842,50,992,158,462,95,26,845,101,145,832,370,532,770,479,323,445,66,199,673,556,873,911,102,831,272,903,296,919,277,23,649,62,638,677,335,41,459,295,54,232,552,163,250,687,869,396,654,892,476,555,422,283,568,672,598,963,143,969,567,590,282,732,830,520,189,9,803,474,950,526,749,363,650,314,245,100,543,194,927,71,611,683,119,278,921,529,871,110,735,658,226,400,328,122,481,570,995,788,307,981,671,125,883,760,960,778,908,44,685,798,506,76,198,160,949,841,49,79,482,528,646,494,137,129,111,209,956,244,131,726,836,710,505,863,460,619,219,399,862,750,227,11,602,752,302,357,387,844,343,318,785,509,693,689,539,776,383,398,206,72,603,668,917,936,631,527,847,784,152,347,126,53,846,804,70,618,372,461,678,388,439,953,946,563,833,80,175,93,571,601,604,84,239,222,766,289,630,188,10,679,280,796,872,584,896,746,337,887,36,235,988,223,15,745,4,191,624,134,181,876,253,241,442,32,700,701,699,742,14,105,446,165,373,688,475,497,13,493,488,954,135,157,120,811,393,320,0,987,629,622,352,976,550,22,545,368,580,37,839,221,669,258,67,321,985,88,890,714,58,648,326,308,944,697,856,218,578,768,951,168,108,818,65,159,392,304,83,932,33,435,744,115,240,627,420,500,573,541,297,117,772,52,82,246,961,432,739,376,190,557,454,816,104,978,511,254,977,301,378,888,498,315,359,931,484,468,507,600,857,284,661,767,68,782,276,170,789,330,200,63,203,606,809,236,990,316,243,758,192,333,113,704,367,723,914,715,230,664,334]","arrowleft","","true","0","11","183","1000","[""0069_N1000_K0183_CLIQUE"",""0063_N1000_K0183_NOCLIQUE""]"
"","","","","","audio-keyboard-response","97","179245","0.0-59.0-0.0-1.0","","null","audio_feedback/right/coin01.mp3","null","","","","","0","11","183","1000","[""0069_N1000_K0183_CLIQUE"",""0063_N1000_K0183_NOCLIQUE""]"
"","","","","","canvas-keyboard-response","98","181243","0.0-60.0-0.0-0.0","","812","","arrowright","[915,548,260,115,84,530,334,942,77,349,371,849,116,585,690,265,570,190,307,386,379,300,390,94,156,509,408,891,166,235,449,229,825,25,22,393,309,176,761,286,211,336,128,523,842,517,130,243,402,339,554,820,161,763,522,19,16,997,701,718,226,222,272,262,821,199,826,544,132,31,246,965,124,131,995,923,440,767,341,573,247,717,438,955,251,315,831,832,599,946,73,857,835,803,366,677,814,123,429,823,664,889,656,510,433,204,992,444,944,822,588,531,806,958,104,682,620,39,310,394,781,547,299,808,80,153,979,673,834,92,661,436,945,875,491,121,493,377,288,495,759,699,208,817,168,757,650,579,225,977,628,195,911,364,18,149,194,797,475,399,494,368,811,922,654,728,665,184,610,89,638,920,993,906,15,824,306,455,69,746,4,359,78,710,367,882,694,810,478,415,58,324,11,24,248,830,984,13,358,518,980,647,737,598,892,423,392,600,775,90,541,543,122,771,644,614,102,553,534,561,840,437,818,526,446,838,5,59,578,387,346,380,174,482,953,335,511,778,435,462,985,865,989,871,934,918,441,389,360,276,513,514,391,388,959,28,41,137,209,253,201,788,244,607,574,679,496,839,924,319,999,539,332,136,37,473,743,403,152,398,460,113,354,990,320,981,83,741,72,646,903,450,171,163,502,183,727,487,657,752,608,680,146,667,796,381,637,605,175,587,789,498,974,507,186,516,20,205,847,317,120,126,805,733,490,76,802,536,138,56,227,468,74,476,916,935,750,972,112,519,177,419,81,218,456,715,848,301,785,956,474,318,812,642,270,353,198,691,458,636,633,439,470,621,736,913,899,454,861,46,6,713,283,343,443,925,652,766,49,627,836,337,418,291,417,987,960,296,240,9,220,348,908,725,172,42,702,982,888,67,479,675,8,568,160,696,948,500,162,44,745,950,148,933,704,957,1,40,294,937,481,996,375,164,158,890,756,966,749,586,794,60,886,604,293,816,520,382,95,432,447,344,485,859,877,159,754,503,245,779,328,595,634,264,461,99,355,635,815,844,939,93,292,843,26,792,231,363,606,521,106,269,902,484,376,383,155,868,853,327,909,219,705,213,940,927,722,852,929,142,117,529,182,760,361,558,33,594,55,686,819,451,469,96,499,189,962,325,584,867,23,297,65,202,492,98,32,333,674,862,904,477,597,967,931,181,295,338,17,537,681,809,837,427,239,508,801,901,969,87,525,641,583,109,230,970,329,668,569,758,212,151,266,622,401,711,486,7,448,850,463,259,430,347,467,434,786,86,729,983,582,719,3,352,378,724,755,61,413,744,751,278,609,397,975,625,790,279,316,311,907,2,331,784,275,277,370,645,535,895,144,616,215,943,188,488,709,730,489,412,556,770,576,504,527,197,700,893,563,466,708,896,108,362,50,858,167,772,542,876,800,884,739,414,75,464,827,323,676,684,941,170,88,632,663,747,698,483,34,988,180,125,765,538,103,532,178,795,591,732,133,577,991,721,303,947,29,791,506,978,900,630,540,263,114,14,692,345,249,897,404,445,742,350,110,731,589,216,936,267,63,428,524,910,241,351,860,874,340,465,97,118,505,885,651,774,252,880,385,917,615,256,111,193,268,905,655,298,203,629,707,238,706,603,143,912,807,898,855,410,421,217,581,129,964,590,342,62,813,426,533,12,228,550,145,883,207,560,567,780,870,669,551,768,169,954,107,798,777,405,685,723,994,68,914,406,866,596,154,480,289,105,91,134,557,720,21,738,431,384,407,841,255,968,38,35,976,856,562,660,762,659,631,546,214,952,932,30,57,233,666,773,973,565,237,312,185,580,242,396,457,281,442,127,949,274,497,395,400,223,833,424,261,290,592,515,221,683,998,545,0,963,66,280,764,411,330,693,165,566,845,373,879,753,864,961,793,639,321,971,887,210,224,27,119,829,881,640,688,851,36,714,740,703,552,101,878,769,10,53,653,716,919,236,206,571,787,372,47,192,471,671,894,179,697,51,234,313,45,662,43,452,828,200,593,572,273,140,926,139,305,873,928,425,854,846,601,678,643,326,357,416,314,649,369,422,187,872,951,689,420,619,799,869,501,712,921,626,938,658,284,472,611,783,575,85,64,459,735,549,285,374,141,282,271,100,250,617,776,232,254,302,672,48,782,624,365,453,150,322,54,70,157,528,748,308,52,734,687,191,726,356,930,555,257,602,618,623,512,82,564,695,258,613,287,196,670,559,612,863,648,986,147,409,173,71,79,804,135,304]","arrowleft","","false","0","12","167","1000","[""0016_N1000_K0167_CLIQUE"",""0006_N1000_K0167_NOCLIQUE""]"
"","","","","","audio-keyboard-response","99","182245","0.0-60.0-0.0-1.0","","null","audio_feedback/wrong/error01.mp3","null","","","","","0","12","167","1000","[""0016_N1000_K0167_CLIQUE"",""0006_N1000_K0167_NOCLIQUE""]"
"","","","","","canvas-keyboard-response","100","184460","0.0-61.0-0.0-0.0","","993","","arrowleft","[542,388,153,108,279,112,888,42,105,689,796,84,919,568,682,329,506,456,255,812,128,602,690,825,263,838,483,822,115,538,644,539,464,228,188,309,214,154,411,101,174,925,455,924,598,160,928,238,680,298,476,297,930,330,759,636,815,608,462,444,212,59,3,810,864,213,266,28,32,312,716,396,518,311,893,798,792,66,216,571,203,315,513,301,758,889,384,771,488,333,545,347,588,147,710,194,331,882,422,534,373,954,546,647,616,102,278,679,106,974,150,92,338,653,503,501,567,600,233,143,308,265,847,631,177,163,477,473,276,69,479,319,182,862,181,755,321,669,614,860,599,337,896,677,381,508,17,367,629,53,140,763,286,948,630,234,415,375,205,404,706,0,183,761,24,993,29,109,113,96,521,607,451,165,735,21,832,573,795,656,811,10,254,459,39,93,498,22,841,804,663,715,469,514,318,960,564,328,540,933,526,610,612,18,803,291,64,593,895,433,980,135,830,575,145,892,158,913,90,535,615,162,577,953,702,353,360,405,33,393,773,527,368,802,288,290,637,292,313,79,16,173,931,419,85,133,831,998,196,915,67,280,891,549,413,82,834,528,31,142,869,258,215,134,672,920,941,883,417,120,863,686,423,590,921,899,949,787,748,457,728,440,989,741,744,530,842,988,431,901,996,358,684,947,426,343,628,772,421,295,74,617,903,739,100,340,261,310,700,73,414,262,210,657,323,902,229,978,257,57,55,365,584,967,78,300,712,369,97,635,666,720,118,91,875,356,760,239,621,569,640,4,667,756,275,378,570,231,778,583,820,975,752,719,592,176,376,247,429,198,853,363,611,723,754,770,2,324,7,890,790,437,127,26,561,714,532,240,807,399,267,531,876,516,460,296,769,859,871,972,304,60,442,8,180,681,302,783,63,563,722,427,159,481,285,450,83,646,380,507,157,687,562,800,221,785,289,639,50,817,945,699,977,877,232,80,271,77,374,916,510,403,294,126,559,939,839,246,478,359,377,881,721,776,697,269,878,227,879,335,485,316,65,88,1,548,852,223,416,987,582,729,436,843,12,425,885,480,951,349,6,943,524,757,992,701,15,394,493,432,789,813,595,808,966,224,929,805,685,867,47,119,927,167,48,235,372,166,986,910,326,674,219,19,946,111,192,418,94,260,409,523,642,766,768,49,536,502,652,999,197,784,985,698,638,580,30,991,835,250,406,626,461,788,963,454,641,186,818,726,452,355,664,89,970,777,281,364,908,472,868,131,733,87,366,619,625,844,552,361,694,823,565,840,482,75,354,858,390,171,846,287,496,605,453,520,589,14,283,401,489,727,245,995,944,222,620,385,412,747,550,230,718,762,691,658,20,671,851,801,402,942,624,522,976,201,491,956,467,750,643,284,695,306,351,872,618,848,345,468,884,926,179,98,475,137,574,911,38,350,558,873,937,751,914,293,730,27,62,43,870,934,786,753,497,5,317,731,386,912,606,252,651,272,68,898,446,676,734,253,824,799,704,581,114,132,979,654,633,54,725,525,164,957,717,918,139,665,874,668,161,218,594,149,767,627,141,348,819,688,125,922,434,724,845,917,713,964,148,277,449,660,241,746,282,207,44,634,861,692,505,553,251,806,116,738,708,923,144,519,397,555,601,609,866,499,886,191,379,424,973,439,693,236,243,382,370,855,122,327,217,849,936,471,560,959,76,670,740,305,204,226,512,533,151,185,40,904,45,673,737,983,466,650,814,696,554,244,190,833,259,745,765,500,797,307,202,37,622,256,13,900,332,854,420,887,400,809,344,206,23,821,46,445,579,932,264,994,70,208,572,274,211,984,371,837,189,826,72,95,935,556,997,170,604,537,906,509,950,566,603,632,225,661,551,56,645,342,314,465,596,775,168,894,11,962,320,490,175,237,136,578,51,270,597,662,336,398,856,152,123,576,435,981,341,793,990,791,169,187,487,391,938,517,387,448,774,659,782,955,703,273,339,909,268,940,441,780,648,836,515,544,683,463,732,392,34,428,557,543,781,325,383,492,107,749,707,81,504,857,184,52,25,623,829,470,907,407,905,124,952,779,36,511,678,242,705,794,155,220,61,193,494,121,129,322,484,138,743,178,649,195,827,547,249,828,764,443,969,541,897,303,961,103,99,474,248,334,430,587,486,495,156,982,35,742,346,209,965,71,104,816,591,410,117,447,655,172,362,585,709,146,971,850,736,865,352,395,586,458,130,438,880,357,58,958,389,110,408,9,529,675,86,200,199,711,299,41,968,613]","arrowleft","","true","0","13","167","1000","[""0022_N1000_K0167_CLIQUE"",""0049_N1000_K0167_NOCLIQUE""]"
"","","","","","audio-keyboard-response","101","185444","0.0-61.0-0.0-1.0","","null","audio_feedback/right/coin01.mp3","null","","","","","0","13","167","1000","[""0022_N1000_K0167_CLIQUE"",""0049_N1000_K0167_NOCLIQUE""]"
"","","","","","canvas-keyboard-response","102","187588","0.0-62.0-0.0-0.0","","946",""," ","[851,329,189,841,920,431,785,519,256,423,480,48,66,775,750,945,831,260,243,353,145,455,497,158,587,25,221,238,69,326,601,348,428,415,912,484,289,734,430,192,498,312,205,64,362,889,184,798,210,626,506,558,9,505,707,870,311,407,530,363,689,797,207,52,2,453,542,684,980,599,895,764,458,572,83,399,471,690,691,609,967,565,257,575,947,843,555,175,948,652,876,637,741,649,509,419,986,220,566,699,910,526,673,457,89,300,809,845,864,444,301,215,622,824,55,768,808,888,865,400,227,898,468,183,40,543,379,478,548,208,412,979,408,540,380,655,660,200,966,293,281,858,269,836,735,744,814,901,65,774,174,230,726,894,650,936,933,608,837,784,990,914,582,472,49,261,880,657,7,287,245,112,306,668,358,161,992,50,677,334,258,647,273,879,930,616,179,680,999,493,164,77,16,848,242,389,551,80,907,833,850,129,317,491,828,383,669,567,918,495,529,634,795,418,316,185,949,354,788,802,136,63,360,965,753,44,890,545,477,755,628,279,549,853,899,429,88,397,658,109,148,378,694,313,987,679,125,90,422,972,515,648,681,847,123,811,294,351,402,779,944,722,827,198,120,492,881,19,160,568,503,216,598,152,771,78,511,62,6,600,381,494,228,507,67,305,903,510,128,761,829,991,433,4,171,277,34,950,929,552,390,219,528,527,266,70,304,645,998,602,794,786,893,746,43,38,675,856,445,39,370,576,606,800,525,394,486,846,127,488,667,13,994,308,959,255,818,126,194,615,117,178,678,59,541,452,211,561,193,700,663,91,246,248,182,524,442,73,993,369,71,585,791,758,581,476,956,617,591,908,603,345,103,17,454,536,267,976,124,396,20,489,134,834,778,451,286,877,350,247,863,844,924,886,534,643,546,590,163,869,911,806,217,122,533,406,692,547,195,641,981,631,810,465,919,954,272,68,960,315,644,704,790,862,592,282,969,596,411,646,723,711,61,724,826,917,995,440,597,53,619,915,832,475,913,461,982,342,469,5,393,436,737,29,191,725,835,593,500,780,335,940,298,309,218,303,717,84,801,33,697,234,310,229,338,698,792,897,154,72,817,295,32,605,906,274,133,957,531,569,718,376,209,554,280,731,375,251,139,135,268,170,767,578,27,81,231,624,153,638,952,391,776,275,696,466,757,720,666,640,42,355,460,151,900,955,438,15,271,403,825,225,421,513,857,878,328,782,367,8,751,319,932,730,820,973,100,875,147,339,56,416,368,560,964,99,573,885,121,51,662,909,424,623,141,564,254,22,290,635,937,687,550,743,812,212,804,320,425,213,1,958,706,852,490,747,463,520,584,30,132,781,840,927,146,47,188,482,523,748,190,28,535,665,532,237,114,23,385,943,859,896,580,226,962,709,594,629,611,392,356,830,24,262,253,116,473,739,417,636,244,270,642,173,618,168,21,868,926,941,925,439,341,702,803,855,988,0,26,953,882,479,822,935,327,621,588,180,41,693,435,604,314,323,155,352,467,553,583,250,130,762,916,297,401,508,861,656,544,799,703,772,292,968,288,106,685,872,504,860,813,672,978,108,131,223,867,420,763,740,630,94,206,414,75,496,481,413,574,18,727,664,349,186,807,384,249,639,765,214,386,738,201,518,252,203,934,654,719,884,676,661,464,332,346,446,556,197,222,167,176,405,459,769,97,57,359,166,577,627,366,620,3,364,759,902,60,612,448,705,336,54,343,854,928,361,614,285,819,985,159,199,263,296,873,409,79,815,683,115,983,891,427,450,499,76,119,579,931,181,259,239,996,371,871,240,14,842,470,283,625,571,777,46,716,713,671,474,150,110,156,299,874,144,87,462,149,997,483,374,745,449,682,770,970,839,838,82,501,961,653,35,307,236,232,187,522,905,302,138,74,938,264,821,742,805,118,559,162,113,333,387,404,432,382,749,539,823,521,331,971,318,922,443,395,613,651,939,388,766,96,85,760,224,485,892,562,321,365,434,137,347,849,241,86,516,946,714,783,607,410,426,659,12,570,169,104,140,674,324,177,632,732,883,165,963,736,92,589,977,291,337,196,816,787,377,695,357,11,537,202,756,58,487,610,733,372,344,975,538,172,595,437,157,373,796,447,557,278,904,37,712,729,101,31,633,984,502,974,102,204,235,284,233,701,398,686,754,105,710,887,923,93,10,517,989,752,322,708,586,793,36,514,688,107,111,866,276,98,789,721,942,512,330,921,265,45,715,456,143,728,670,773,340,325,951,563,441,95,142]","arrowleft","","","0","14","150","1000","[""0089_N1000_K0150_CLIQUE"",""0070_N1000_K0150_NOCLIQUE""]"
"","","","","","audio-keyboard-response","103","188684","0.0-62.0-0.0-1.0","","null","audio_feedback/shuffles/shuffle01.mp3","null","","","","","0","14","150","1000","[""0089_N1000_K0150_CLIQUE"",""0070_N1000_K0150_NOCLIQUE""]"
"","","","","","canvas-keyboard-response","104","190953","0.0-62.1-0.1-0.1","","1124","","arrowleft","[289,385,841,869,180,538,804,555,649,453,464,491,655,583,199,926,105,514,748,236,24,788,77,303,650,324,552,431,671,634,539,759,966,826,147,938,391,367,66,214,460,689,475,16,298,899,653,859,680,757,676,185,924,267,15,566,96,211,4,366,559,449,308,53,610,962,412,615,747,582,906,883,5,343,707,341,983,659,228,206,829,958,187,824,94,666,513,52,216,803,284,322,736,210,526,994,386,694,455,964,732,737,633,477,33,238,611,417,590,173,725,458,870,972,67,244,645,741,847,933,179,742,435,679,954,394,329,21,800,695,956,773,982,19,871,963,614,293,340,103,224,790,83,831,665,909,60,896,269,843,481,784,507,651,631,656,561,473,782,318,937,194,328,903,297,943,181,989,797,384,942,603,348,706,87,342,160,288,726,565,545,697,923,323,740,830,563,482,426,350,430,163,339,644,27,927,669,270,240,881,130,404,758,271,818,685,364,564,68,91,785,148,23,894,407,600,276,754,76,544,969,839,494,798,114,32,984,945,215,406,713,143,317,171,75,626,543,257,102,111,233,709,280,795,662,584,11,325,608,101,14,878,403,444,349,862,851,149,973,85,884,682,170,857,524,360,133,772,454,959,468,421,907,278,678,637,442,743,495,489,628,218,558,681,940,882,765,527,928,44,212,729,492,265,119,285,744,234,488,581,821,239,362,771,302,630,521,876,471,845,572,802,7,997,595,47,756,374,528,337,427,195,904,602,936,594,910,511,720,291,932,116,597,166,987,853,711,505,375,409,717,761,708,848,914,811,842,82,648,327,438,980,827,117,953,249,865,80,512,432,929,155,400,879,721,768,607,396,208,418,592,202,701,113,434,990,279,619,577,312,890,69,724,873,733,777,702,515,395,769,886,506,612,599,965,371,425,996,570,334,99,675,704,946,222,976,947,778,730,674,30,178,576,104,866,814,776,358,877,517,169,383,389,144,915,264,672,635,131,56,145,123,503,618,231,88,142,478,700,520,401,54,587,220,668,296,423,698,472,26,591,330,64,439,352,73,65,63,919,479,616,819,419,106,120,245,480,546,138,728,196,45,952,223,254,809,833,516,838,154,136,168,493,466,446,916,209,368,688,805,59,498,89,124,398,960,305,556,796,609,266,638,752,525,159,320,344,307,986,190,574,48,175,127,828,588,263,377,93,575,46,158,854,844,450,28,78,900,192,957,399,832,822,71,232,128,361,647,746,309,29,755,0,573,922,333,256,381,860,712,593,661,632,281,437,12,643,121,677,613,975,504,935,205,497,835,625,487,248,365,955,912,888,429,36,509,200,174,25,792,6,41,314,589,510,579,921,189,469,275,84,663,523,530,463,204,970,762,763,321,424,825,816,35,801,392,90,550,657,357,457,122,501,812,259,622,823,787,779,710,640,20,50,183,846,172,70,184,452,950,129,949,864,852,925,999,992,920,808,750,287,451,686,153,176,261,993,165,345,554,571,186,967,901,889,917,376,235,586,629,51,405,225,598,760,687,134,690,38,310,356,351,719,549,221,313,347,486,456,518,359,433,735,951,652,353,115,251,40,355,714,974,722,547,727,110,86,718,764,734,820,58,880,370,944,580,751,658,789,109,420,766,441,863,715,716,253,167,410,654,373,388,931,459,151,485,413,137,306,10,402,445,197,968,939,346,81,3,2,372,534,620,585,393,126,703,378,699,112,781,61,146,283,692,948,749,258,867,605,34,731,780,918,836,260,414,72,961,739,141,9,255,913,705,247,150,988,315,560,92,569,670,411,79,723,604,941,286,108,448,252,887,601,840,191,596,806,379,540,508,246,74,440,387,476,139,311,868,37,428,164,193,813,49,140,905,837,415,152,578,861,799,338,646,319,135,483,213,294,188,335,793,636,858,447,541,551,282,39,667,42,642,745,462,436,531,18,300,95,461,810,177,991,537,304,207,875,979,217,891,522,500,834,62,977,786,639,673,794,107,316,624,767,770,382,902,22,422,484,775,474,277,156,562,57,934,783,241,490,470,696,738,874,815,332,13,898,971,536,299,895,390,162,664,617,641,621,363,326,230,182,693,237,849,416,331,55,274,807,397,548,262,978,791,995,132,519,893,17,542,290,408,43,226,250,532,499,911,897,892,930,981,97,272,627,908,753,273,467,219,855,157,998,243,198,606,31,201,227,529,684,229,295,885,623,380,203,533,443,553,817,850,161,872,774,535,465,496,301,8,100,98,567,691,660,568,118,125,557,268,336,502,683,242,354,1,985,369,292,856]","arrowleft","","true","0","14","150","1000","[""0089_N1000_K0150_CLIQUE"",""0070_N1000_K0150_NOCLIQUE""]"
"","","","","","audio-keyboard-response","105","191945","0.0-62.1-0.1-1.1","","null","audio_feedback/right/coin01.mp3","null","","","","","0","14","150","1000","[""0089_N1000_K0150_CLIQUE"",""0070_N1000_K0150_NOCLIQUE""]"
"","","","","","canvas-keyboard-response","106","194997","0.0-63.0-0.0-0.0","","1838","","arrowleft","[304,4,737,56,530,393,498,100,968,642,952,943,286,806,793,1,59,240,351,776,568,319,129,217,696,205,829,333,704,623,884,999,363,447,576,658,648,911,519,402,175,631,152,780,291,505,516,857,412,641,151,985,711,397,676,470,300,67,260,90,113,16,277,362,135,764,569,276,921,939,614,26,781,405,636,370,731,501,728,176,966,500,399,680,940,600,566,42,635,910,927,740,826,444,167,219,292,95,442,420,30,984,315,955,364,928,750,842,836,170,695,265,627,988,288,348,136,303,589,812,91,722,236,410,570,97,263,672,105,845,210,361,745,6,480,461,962,93,9,914,510,883,726,674,877,88,584,186,677,0,99,540,867,146,327,432,347,216,788,279,503,512,975,354,435,127,268,934,297,901,198,851,881,713,800,285,543,760,436,970,32,45,416,850,181,437,380,893,476,712,625,796,282,859,454,418,954,903,679,879,880,121,860,973,686,844,701,809,637,846,209,457,24,746,180,798,785,651,40,58,195,38,619,145,575,853,774,888,675,179,212,960,227,665,646,499,553,815,490,148,70,465,856,475,978,816,98,452,617,546,62,200,8,873,395,640,795,253,94,787,748,565,598,86,608,75,366,688,71,243,541,605,450,147,667,149,723,874,847,383,517,61,919,579,765,81,317,561,203,337,403,211,913,840,49,908,742,595,103,301,367,714,235,549,611,520,194,902,19,261,256,682,772,326,458,593,78,662,533,666,336,115,128,172,524,959,150,708,668,502,599,408,948,48,687,571,117,108,832,694,909,606,782,529,525,718,187,459,564,332,690,352,5,514,188,804,692,298,411,725,591,929,721,77,142,464,451,358,446,79,483,942,784,41,616,471,963,697,7,581,923,114,220,3,513,831,981,313,254,306,749,822,876,730,691,588,620,807,889,55,112,689,52,870,15,427,586,592,552,920,801,494,602,976,166,824,384,247,208,819,594,215,925,915,716,596,189,791,803,12,439,2,778,379,872,448,296,506,371,102,421,758,794,838,775,262,938,685,878,612,386,27,994,802,312,178,124,523,650,835,378,110,232,481,828,133,92,290,998,467,141,538,241,191,484,120,897,201,434,610,345,228,936,169,904,752,946,278,428,743,604,924,57,770,741,343,375,585,535,154,792,401,449,990,429,299,488,140,983,206,160,487,833,554,445,389,171,456,275,104,284,633,841,489,314,933,858,818,779,468,941,839,39,414,226,144,417,747,182,251,495,534,433,224,233,733,719,837,294,717,995,547,926,381,961,618,577,550,652,972,957,289,341,34,989,528,96,308,184,916,274,80,601,808,73,273,111,931,183,556,238,735,266,321,477,68,899,83,139,404,630,72,817,324,350,165,422,252,738,482,14,69,950,980,242,440,700,753,246,917,638,515,424,89,875,951,76,590,155,377,443,755,895,415,356,864,562,225,162,624,388,508,255,426,157,771,373,810,539,583,918,654,504,649,900,280,671,190,991,854,346,335,709,834,269,789,231,891,174,463,653,400,935,158,272,407,805,22,281,996,551,558,283,724,20,894,967,126,825,207,645,573,657,626,644,310,441,159,821,330,460,849,922,413,123,239,339,997,526,958,706,359,715,621,349,28,396,469,125,406,647,953,986,431,230,639,603,31,865,66,848,237,756,811,729,334,156,199,163,703,214,53,419,185,305,398,204,773,248,673,843,385,23,702,497,357,391,628,871,25,655,757,11,732,542,374,197,264,886,338,557,496,173,13,814,438,736,932,425,229,85,267,898,423,37,293,376,522,670,287,29,982,390,331,907,244,632,21,979,137,119,257,234,992,328,559,369,271,258,869,768,681,629,548,302,887,572,971,344,249,340,107,659,862,664,754,827,355,259,545,33,763,969,342,320,863,394,580,222,977,245,492,101,192,705,661,710,177,46,106,707,109,912,698,609,318,762,372,473,392,138,578,74,852,63,132,131,790,555,60,365,882,382,360,329,478,761,769,409,866,905,656,964,325,974,64,143,462,311,767,536,693,739,613,896,153,751,54,643,734,582,699,855,213,965,944,316,634,766,531,82,544,532,18,684,368,937,472,744,947,820,945,527,323,202,218,622,797,720,868,615,493,727,51,193,387,813,250,830,168,474,783,930,35,507,453,50,309,44,353,36,683,84,307,597,823,777,511,164,118,678,196,518,130,759,890,479,906,885,43,122,660,663,47,466,560,521,10,486,322,892,455,485,223,270,567,134,574,491,17,430,956,116,949,861,221,563,65,161,993,587,537,295,786,669,607,799,87,509,987]","arrowleft","","true","0","15","150","1000","[""0094_N1000_K0150_CLIQUE"",""0023_N1000_K0150_NOCLIQUE""]"
"","","","","","audio-keyboard-response","107","195983","0.0-63.0-0.0-1.0","","null","audio_feedback/right/coin01.mp3","null","","","","","0","15","150","1000","[""0094_N1000_K0150_CLIQUE"",""0023_N1000_K0150_NOCLIQUE""]"
"","","","","","canvas-keyboard-response","108","198459","0.0-64.0-0.0-0.0","","1363","","arrowright","[821,90,259,564,331,400,490,249,541,587,812,112,906,599,585,819,514,588,996,196,506,98,908,947,265,120,843,467,183,454,751,550,45,170,489,874,701,373,187,640,517,177,571,526,904,928,505,137,698,232,72,40,674,162,686,661,377,999,953,149,399,206,320,88,382,700,595,391,888,856,450,882,387,247,631,656,336,422,220,164,822,278,378,374,260,930,628,496,667,527,424,301,854,622,574,602,591,36,321,889,929,531,790,898,160,337,699,933,776,719,795,0,973,438,782,365,244,755,261,865,363,793,302,801,404,886,413,150,535,763,193,95,566,833,12,521,163,784,324,568,135,522,121,781,982,513,87,692,972,881,642,20,960,516,645,954,402,974,364,543,258,277,935,69,51,165,921,637,143,967,85,256,829,860,178,780,156,555,209,941,636,647,395,231,706,420,504,609,405,42,416,560,866,68,356,28,345,771,507,911,673,475,671,752,280,293,873,901,250,926,991,153,392,536,943,554,431,390,998,421,229,444,567,7,75,869,910,578,738,354,890,282,664,180,485,437,34,912,129,669,70,548,837,388,184,288,152,556,148,519,794,24,877,624,62,15,306,895,201,956,670,815,54,434,690,11,936,957,94,202,971,853,361,633,808,101,727,147,197,46,411,694,509,124,59,192,221,341,730,19,896,620,984,582,919,604,828,687,658,549,848,818,558,275,897,598,855,272,105,677,326,932,778,909,737,629,89,63,870,52,530,86,262,104,435,756,590,934,305,580,380,449,569,311,292,253,685,360,442,289,508,181,650,157,575,33,91,281,447,858,802,672,772,534,139,542,862,138,142,16,440,707,769,979,480,203,618,462,67,304,22,800,766,225,716,803,340,242,723,634,330,5,900,713,970,907,760,883,614,398,339,731,325,429,682,660,515,226,789,219,518,383,477,562,617,271,951,55,343,205,307,174,826,185,47,814,83,762,607,29,158,239,318,309,188,151,775,179,537,786,893,696,662,817,799,805,841,753,458,809,491,702,734,665,641,630,445,693,463,561,6,759,131,958,64,983,257,872,494,423,56,940,635,586,327,409,355,456,350,375,39,654,478,949,353,273,950,988,832,923,168,668,43,218,254,176,349,410,191,3,76,100,626,830,210,600,499,849,323,683,401,993,172,879,989,57,740,745,748,538,125,788,579,845,838,246,710,297,186,655,691,317,689,451,115,997,234,572,533,952,268,308,615,502,487,557,140,646,452,255,688,577,891,446,117,334,715,295,279,798,237,902,299,113,190,73,394,540,376,681,867,146,722,565,969,241,663,417,603,510,315,746,736,525,939,592,166,726,393,248,357,844,913,616,31,116,876,553,887,214,144,639,977,359,32,711,389,99,159,488,38,303,823,500,964,735,757,122,379,623,366,155,370,742,842,739,470,182,709,408,471,583,483,666,959,385,2,108,92,368,966,329,167,761,439,868,503,414,643,774,118,878,652,9,465,274,322,198,612,871,914,589,84,298,484,619,224,294,290,415,457,310,593,109,17,651,433,479,21,71,581,653,460,747,130,300,659,396,905,211,657,552,269,240,729,78,204,831,498,610,750,384,551,173,846,847,743,333,927,35,942,215,920,728,875,267,351,58,464,472,199,476,899,924,810,286,123,285,119,284,48,223,103,613,675,194,705,270,455,916,980,570,461,611,852,885,161,720,944,963,638,749,733,816,621,251,418,41,717,213,529,851,946,777,312,965,915,563,296,236,23,466,791,397,10,835,238,448,134,212,718,216,14,110,764,154,584,576,332,82,938,754,189,922,892,925,344,767,245,744,1,432,316,625,50,806,403,8,127,428,708,114,520,369,787,65,169,217,4,233,338,894,492,26,796,227,459,813,207,596,80,528,441,962,857,228,314,539,968,785,406,820,97,605,770,106,27,425,77,903,128,992,208,880,235,175,680,523,931,60,632,981,714,864,264,266,348,985,994,126,834,436,627,917,987,81,768,676,976,53,732,102,512,49,697,74,141,524,545,93,721,725,469,263,200,426,679,497,986,863,594,171,195,804,381,342,145,474,313,30,573,37,132,948,44,990,386,606,136,25,276,758,824,546,704,836,66,111,283,807,481,827,13,430,741,712,319,412,825,840,703,493,859,608,61,918,473,495,783,427,532,419,547,937,684,501,482,486,468,779,346,811,443,252,797,884,367,695,230,678,352,371,559,773,358,995,975,644,544,961,79,372,107,955,945,839,335,96,453,243,18,347,601,978,328,511,407,724,291,850,861,597,765,362,287,648,649,133,792,222]","arrowright","","true","0","16","133","1000","[""0035_N1000_K0133_NOCLIQUE"",""0013_N1000_K0133_CLIQUE""]"
"","","","","","audio-keyboard-response","109","199445","0.0-64.0-0.0-1.0","","null","audio_feedback/right/coin01.mp3","null","","","","","0","16","133","1000","[""0035_N1000_K0133_NOCLIQUE"",""0013_N1000_K0133_CLIQUE""]"
