"success","timeout","failed_images","failed_audio","failed_video","trial_type","trial_index","time_elapsed","internal_node_id","view_history","rt","stimulus","response","nodes_order","correct_response","graphs_couple","accuracy","block_index","presentation_index","clique_size","graph_size","graphs_names"
"true","false","[]","[]","[]","preload","0","428","0.0-0.0","","","","","","","","","","","","",""
"","","","","","pavlovia","1","1221","0.0-1.0","","","","","","","","","","","","",""
"","","","","","instructions","2","4942","0.0-2.0","[{""page_index"":0,""viewing_time"":2181},{""page_index"":1,""viewing_time"":1536}]","3717","","","","","","","","","","",""
"true","false","[]","[]","[]","preload","3","5983","0.0-3.0","","","","","","","","","","","","",""
"","","","","","instructions","4","24896","0.0-4.0","[{""page_index"":0,""viewing_time"":1430},{""page_index"":1,""viewing_time"":367},{""page_index"":2,""viewing_time"":285},{""page_index"":3,""viewing_time"":271},{""page_index"":4,""viewing_time"":263},{""page_index"":5,""viewing_time"":234},{""page_index"":6,""viewing_time"":146},{""page_index"":7,""viewing_time"":330},{""page_index"":8,""viewing_time"":345},{""page_index"":9,""viewing_time"":178},{""page_index"":10,""viewing_time"":141},{""page_index"":11,""viewing_time"":373},{""page_index"":12,""viewing_time"":324},{""page_index"":13,""viewing_time"":174},{""page_index"":14,""viewing_time"":162},{""page_index"":15,""viewing_time"":376},{""page_index"":16,""viewing_time"":308},{""page_index"":17,""viewing_time"":156},{""page_index"":18,""viewing_time"":140},{""page_index"":19,""viewing_time"":339},{""page_index"":20,""viewing_time"":349},{""page_index"":21,""viewing_time"":293},{""page_index"":22,""viewing_time"":279},{""page_index"":23,""viewing_time"":181},{""page_index"":24,""viewing_time"":157},{""page_index"":25,""viewing_time"":310},{""page_index"":26,""viewing_time"":246},{""page_index"":27,""viewing_time"":197},{""page_index"":28,""viewing_time"":212},{""page_index"":29,""viewing_time"":486},{""page_index"":30,""viewing_time"":163},{""page_index"":31,""viewing_time"":196},{""page_index"":32,""viewing_time"":216},{""page_index"":33,""viewing_time"":477},{""page_index"":34,""viewing_time"":388},{""page_index"":35,""viewing_time"":450},{""page_index"":36,""viewing_time"":420},{""page_index"":37,""viewing_time"":409},{""page_index"":38,""viewing_time"":499},{""page_index"":39,""viewing_time"":644},{""page_index"":40,""viewing_time"":174},{""page_index"":41,""viewing_time"":176},{""page_index"":42,""viewing_time"":302},{""page_index"":43,""viewing_time"":333},{""page_index"":44,""viewing_time"":980},{""page_index"":45,""viewing_time"":154},{""page_index"":46,""viewing_time"":847},{""page_index"":47,""viewing_time"":883},{""page_index"":48,""viewing_time"":697},{""page_index"":49,""viewing_time"":367},{""page_index"":50,""viewing_time"":388},{""page_index"":51,""viewing_time"":697}]","18912","","","","","","","","","","",""
"","","","","","instructions","5","26758","0.0-5.0","[{""page_index"":0,""viewing_time"":1862}]","1862","","","","","","","","","","",""
"true","false","[]","[]","[]","preload","6","28573","0.0-6.0","","","","","","","","","","","","",""
"","","","","","image-keyboard-response","7","33443","0.0-7.0","","4840","tutorial/task_familiarization_images/part 1/01_N160_K90_cliqueRight_question1.PNG"," ","","","","","","","","",""
"","","","","","image-keyboard-response","8","33646","0.0-8.0","","185","tutorial/task_familiarization_images/part 1/02_N160_K90_cliqueRight_question2.PNG"," ","","","","","","","","",""
"","","","","","image-keyboard-response","9","34891","0.0-9.0","","1229","tutorial/task_familiarization_images/part 1/03_N160_K90_cliqueRight_question3.PNG","arrowright","","","","","","","","",""
"","","","","","image-keyboard-response","10","35737","0.0-10.0","","830","tutorial/task_familiarization_images/part 1/04_N160_K90_cliqueRight_solution.PNG"," ","","","","","","","","",""
"","","","","","image-keyboard-response","11","37986","0.0-11.0","","2236","tutorial/task_familiarization_images/part 1/05_N160_K65_cliqueRight_question1.PNG"," ","","","","","","","","",""
"","","","","","image-keyboard-response","12","38220","0.0-12.0","","219","tutorial/task_familiarization_images/part 1/06_N160_K65_cliqueRight_question2.PNG"," ","","","","","","","","",""
"","","","","","image-keyboard-response","13","38634","0.0-13.0","","400","tutorial/task_familiarization_images/part 1/07_N160_K65_cliqueRight_question3.PNG","arrowright","","","","","","","","",""
"","","","","","image-keyboard-response","14","39125","0.0-14.0","","477","tutorial/task_familiarization_images/part 1/08_N160_K65_cliqueRight_solution.PNG"," ","","","","","","","","",""
"","","","","","image-keyboard-response","15","40553","0.0-15.0","","1412","tutorial/task_familiarization_images/part 1/09_N160_K50_cliqueLeft_question1.PNG"," ","","","","","","","","",""
"","","","","","image-keyboard-response","16","40660","0.0-16.0","","87","tutorial/task_familiarization_images/part 1/10_N160_K50_cliqueLeft_question2.PNG"," ","","","","","","","","",""
"","","","","","image-keyboard-response","17","41142","0.0-17.0","","462","tutorial/task_familiarization_images/part 1/11_N160_K50_cliqueLeft_question3.PNG","arrowleft","","","","","","","","",""
"","","","","","image-keyboard-response","18","41630","0.0-18.0","","472","tutorial/task_familiarization_images/part 1/12_N160_K50_cliqueLeft_solution.PNG"," ","","","","","","","","",""
"","","","","","image-keyboard-response","19","42839","0.0-19.0","","1193","tutorial/task_familiarization_images/part 1/13_N160_K80_cliqueLeft_question1.PNG"," ","","","","","","","","",""
"","","","","","image-keyboard-response","20","42958","0.0-20.0","","104","tutorial/task_familiarization_images/part 1/14_N160_K80_cliqueLeft_question2.PNG"," ","","","","","","","","",""
"","","","","","image-keyboard-response","21","43807","0.0-21.0","","835","tutorial/task_familiarization_images/part 1/15_N160_K80_cliqueLeft_question3.PNG","arrowleft","","","","","","","","",""
"","","","","","image-keyboard-response","22","44091","0.0-22.0","","269","tutorial/task_familiarization_images/part 1/16_N160_K80_cliqueLeft_solution.PNG"," ","","","","","","","","",""
"","","","","","image-keyboard-response","23","46678","0.0-23.0","","2573","tutorial/task_familiarization_images/part 1/17_N160_K40_cliqueRight_question1.PNG"," ","","","","","","","","",""
"","","","","","image-keyboard-response","24","46820","0.0-24.0","","122","tutorial/task_familiarization_images/part 1/18_N160_K40_cliqueRight_question2.PNG"," ","","","","","","","","",""
"","","","","","image-keyboard-response","25","47563","0.0-25.0","","726","tutorial/task_familiarization_images/part 1/19_N160_K40_cliqueRight_question3.PNG","arrowright","","","","","","","","",""
"","","","","","image-keyboard-response","26","47926","0.0-26.0","","348","tutorial/task_familiarization_images/part 1/20_N160_K40_cliqueRight_solution.PNG"," ","","","","","","","","",""
"","","","","","image-keyboard-response","27","50493","0.0-27.0","","2551","tutorial/task_familiarization_images/part 1/21_N160_K70_cliqueLeft_question1.PNG"," ","","","","","","","","",""
"","","","","","image-keyboard-response","28","50645","0.0-28.0","","137","tutorial/task_familiarization_images/part 1/22_N160_K70_cliqueLeft_question2.PNG"," ","","","","","","","","",""
"","","","","","image-keyboard-response","29","51340","0.0-29.0","","681","tutorial/task_familiarization_images/part 1/23_N160_K70_cliqueLeft_question3.PNG","arrowleft","","","","","","","","",""
"","","","","","image-keyboard-response","30","51567","0.0-30.0","","212","tutorial/task_familiarization_images/part 1/24_N160_K70_cliqueLeft_solution.PNG"," ","","","","","","","","",""
"true","false","[]","[]","[]","preload","31","52386","0.0-31.0","","","","","","","","","","","","",""
"","","","","","image-keyboard-response","32","57365","0.0-32.0","","4951","tutorial/task_familiarization_images/part 2/01_160_80_cliqueLeft_withFeedback_1.PNG"," ","","","","","","","","",""
"","","","","","image-keyboard-response","33","58005","0.0-33.0","","613","tutorial/task_familiarization_images/part 2/02_160_80_cliqueLeft_withFeedback_1.PNG"," ","","","","","","","","",""
"","","","","","image-keyboard-response","34","58749","0.0-34.0","","713","tutorial/task_familiarization_images/part 2/03_160_80_cliqueLeft_withFeedback_3.PNG","arrowleft","","","","","","","","",""
"","","","","","image-keyboard-response","35","59107","0.0-35.0","","333","tutorial/task_familiarization_images/part 2/04_160_80_cliqueLeft_withFeedback_correct.PNG"," ","","","","","","","","",""
"","","","","","image-keyboard-response","36","62209","0.0-36.0","","3076","tutorial/task_familiarization_images/part 2/05_160_55_cliqueRight_withFeedback_1.PNG"," ","","","","","","","","",""
"","","","","","image-keyboard-response","37","64396","0.0-37.0","","2162","tutorial/task_familiarization_images/part 2/06_160_55_cliqueRight_withFeedback_2.PNG"," ","","","","","","","","",""
"","","","","","image-keyboard-response","38","64730","0.0-38.0","","306","tutorial/task_familiarization_images/part 2/07_160_55_cliqueRight_withFeedback_3.PNG","arrowright","","","","","","","","",""
"","","","","","image-keyboard-response","39","67416","0.0-39.0","","2659","tutorial/task_familiarization_images/part 2/08_160_55_cliqueRight_withFeedback_correct.PNG"," ","","","","","","","","",""
"","","","","","image-keyboard-response","40","70767","0.0-40.0","","3326","tutorial/task_familiarization_images/part 2/09_160_70_cliqueLeft_withFeedback_1.PNG"," ","","","","","","","","",""
"","","","","","image-keyboard-response","41","70893","0.0-41.0","","99","tutorial/task_familiarization_images/part 2/10_160_70_cliqueLeft_withFeedback_2.PNG"," ","","","","","","","","",""
"","","","","","image-keyboard-response","42","71577","0.0-42.0","","658","tutorial/task_familiarization_images/part 2/11_160_70_cliqueLeft_withFeedback_3.PNG","arrowleft","","","","","","","","",""
"","","","","","image-keyboard-response","43","71810","0.0-43.0","","208","tutorial/task_familiarization_images/part 2/12_160_70_cliqueLeft_withFeedback_correct.PNG"," ","","","","","","","","",""
"","","","","","survey-html-form","44","75650","0.0-44.0","","3838","","{""gender"":""female"",""age"":""26""}","","","","","","","","",""
"","","","","","instructions","45","77489","0.0-45.0","[{""page_index"":0,""viewing_time"":1839}]","1839","","","","","","","","","","",""
"true","","","","","fullscreen","46","79441","0.0-47.0","","","","","","","","","","","","",""
"","","","","","canvas-keyboard-response","47","83663","0.0-48.0-0.0-0.0","","3219","","arrowright","[408,406,326,436,663,306,206,567,245,163,861,649,19,142,48,391,58,339,857,91,608,171,614,8,818,371,60,538,600,427,667,102,797,704,167,348,3,895,846,361,68,235,644,590,725,420,257,358,864,51,701,812,82,639,659,329,624,498,890,718,775,515,184,630,922,327,340,530,565,17,954,929,64,34,228,653,546,665,443,506,395,101,323,679,976,598,103,910,290,967,108,244,471,318,881,233,71,287,126,526,533,877,422,253,803,483,55,212,680,804,303,299,827,35,570,872,249,458,90,466,291,223,556,459,494,454,255,698,499,765,355,969,650,116,936,183,481,896,724,685,379,966,247,221,489,321,544,591,878,191,15,96,545,918,165,543,777,856,692,415,399,905,50,79,219,637,346,907,934,324,564,687,127,121,681,158,274,357,229,176,749,859,390,783,577,960,693,552,405,525,805,120,9,900,256,343,254,144,733,145,99,61,773,295,338,814,542,74,889,604,891,927,670,541,594,188,440,130,148,576,218,118,138,276,884,820,721,196,883,496,930,77,513,782,316,509,901,185,429,847,208,266,479,672,826,710,413,300,202,467,589,621,726,731,394,825,829,640,720,658,874,45,279,296,112,288,781,970,430,172,790,683,951,913,580,841,597,352,800,10,572,503,795,1,888,830,194,949,477,161,618,767,207,516,892,668,985,986,175,742,700,76,568,737,325,837,373,478,694,592,240,722,282,807,149,707,655,199,289,392,974,150,625,157,982,337,234,382,926,682,166,132,46,635,858,360,14,268,860,995,559,647,894,952,84,786,839,753,633,227,44,843,713,811,699,141,115,838,875,898,727,979,200,170,835,83,78,736,935,531,25,504,469,845,759,646,416,686,27,842,732,778,981,239,779,622,330,502,310,844,851,994,49,402,914,252,505,787,463,709,198,611,292,998,377,368,220,956,741,297,186,789,850,652,940,973,780,66,398,314,656,347,810,237,181,715,468,453,793,0,574,261,944,385,418,354,342,193,331,796,816,794,937,5,631,536,302,518,602,40,119,350,897,641,88,912,917,788,159,695,743,56,553,283,964,578,65,823,593,770,178,708,54,806,473,988,476,535,989,769,304,566,136,702,738,169,381,581,870,487,86,225,414,236,457,551,886,678,248,791,445,70,828,67,582,747,460,522,882,210,688,903,419,73,211,173,488,963,606,153,945,432,486,575,904,706,933,93,100,139,512,410,855,938,177,110,746,265,308,834,798,275,919,662,612,529,532,456,569,987,958,549,322,328,12,754,729,389,293,863,873,271,996,69,528,931,386,269,267,588,57,689,959,867,474,815,500,375,31,215,36,876,764,107,278,865,98,785,345,587,135,23,277,909,941,691,768,383,975,374,824,378,948,366,242,94,801,131,620,501,280,521,43,817,97,26,372,613,63,906,616,946,332,999,548,388,862,238,270,351,174,28,766,990,294,563,705,648,623,547,359,735,957,123,475,367,204,550,854,168,813,719,643,251,250,450,449,991,155,657,105,117,916,363,95,41,920,52,109,558,444,792,154,833,18,739,484,831,962,344,285,661,213,113,711,762,984,201,784,264,734,47,832,62,748,763,654,480,104,939,758,485,562,426,968,140,125,492,273,42,442,376,439,241,30,615,776,774,596,106,950,610,583,89,519,311,539,636,160,751,696,334,915,585,317,433,675,232,24,520,609,821,404,437,809,983,39,92,599,129,446,407,871,638,690,923,880,514,190,491,464,217,134,942,384,755,180,197,72,924,431,341,230,771,879,928,20,335,75,666,284,397,642,634,840,527,651,400,712,617,911,760,423,189,947,607,272,421,819,540,586,364,493,81,627,537,714,124,33,869,993,387,560,673,7,728,671,32,757,619,740,336,555,978,315,365,508,799,632,571,921,628,87,164,260,772,452,752,298,507,524,629,554,114,412,745,320,660,645,523,428,584,517,717,676,38,22,281,885,756,301,214,955,980,224,482,868,965,403,730,6,744,465,902,971,977,953,908,495,664,111,579,435,349,246,16,80,510,455,932,961,684,997,866,263,852,216,133,490,146,557,626,313,231,472,192,462,697,887,369,601,470,319,259,356,561,179,605,156,972,703,187,438,147,85,151,305,380,222,461,893,396,595,37,853,162,511,21,808,203,59,802,243,205,143,209,128,925,441,2,447,393,848,362,53,307,849,258,448,943,674,497,424,152,677,195,401,182,716,409,836,262,122,573,669,750,603,286,11,434,899,137,309,13,411,451,417,312,333,425,534,822,353,761,370,226,992,4,29,723]","arrowright","","true","0","0","300","1000","[""0004_N1000_K0300_NOCLIQUE"",""0036_N1000_K0300_CLIQUE""]"
"","","","","","audio-keyboard-response","48","85167","0.0-48.0-0.0-1.0","","null","audio_feedback/right/coin01.mp3","null","","","","","0","0","300","1000","[""0004_N1000_K0300_NOCLIQUE"",""0036_N1000_K0300_CLIQUE""]"
"","","","","","canvas-keyboard-response","49","86927","0.0-49.0-0.0-0.0","","725","","arrowleft","[935,995,202,104,337,741,835,123,379,46,800,357,985,392,773,355,685,863,713,365,427,175,729,194,105,480,615,255,407,432,131,535,286,975,261,307,5,934,626,499,394,434,304,546,859,31,291,715,648,555,931,735,41,468,231,764,929,170,395,426,224,727,584,489,292,708,404,989,464,862,560,976,264,743,867,850,352,158,243,217,803,871,277,883,209,368,163,269,700,513,82,928,68,157,671,371,876,906,34,242,227,924,748,682,106,723,804,285,8,299,910,442,702,657,399,260,119,640,507,329,952,545,886,32,852,940,909,457,189,35,473,182,475,888,29,563,297,664,554,233,590,467,840,239,838,344,965,806,448,410,638,633,939,317,553,810,797,369,914,552,544,583,0,490,974,943,471,514,796,668,341,503,215,282,750,527,861,179,996,733,361,30,765,601,740,385,687,259,524,21,386,725,959,191,436,458,792,63,948,180,508,754,880,907,569,6,839,421,152,353,718,213,169,142,937,567,607,39,860,686,882,613,80,51,990,229,113,150,478,893,829,19,120,807,298,846,505,257,466,769,993,819,681,139,349,588,798,484,320,529,476,642,278,933,99,136,589,895,482,837,176,784,258,828,919,949,450,173,469,383,444,187,4,658,698,358,712,991,124,667,591,963,656,815,662,97,73,843,799,241,400,738,107,276,912,814,520,605,248,737,86,538,854,942,77,997,174,49,778,848,366,884,711,24,313,424,140,459,772,156,600,903,440,864,18,128,709,666,653,899,273,423,192,580,372,270,449,492,453,791,487,972,94,411,981,171,896,274,927,787,161,133,100,752,747,10,988,621,498,962,486,832,164,340,308,132,631,439,38,632,236,923,420,315,759,818,922,147,841,226,262,693,516,53,67,576,60,83,367,956,509,221,680,44,866,93,240,855,629,430,333,561,166,256,134,809,757,954,980,540,536,885,312,714,502,363,144,691,521,821,149,309,534,230,958,301,609,232,865,325,130,618,783,198,223,16,669,873,146,416,287,875,413,115,768,418,62,374,203,790,645,267,121,960,936,26,776,598,739,380,851,22,941,214,892,271,930,635,519,438,20,592,398,722,33,573,761,606,318,525,595,932,744,992,913,280,774,811,782,703,61,463,847,624,675,206,793,151,905,114,377,101,447,381,295,336,137,412,219,845,717,388,889,488,148,504,610,356,321,571,348,155,901,335,431,330,81,419,874,210,159,921,869,391,887,153,393,428,75,289,813,746,721,331,294,599,684,826,138,982,707,283,998,831,868,898,542,537,178,777,597,326,568,517,452,254,408,441,435,222,565,643,324,129,78,95,57,994,90,728,13,96,74,512,364,390,220,455,59,55,870,141,279,622,332,581,87,91,378,43,646,494,110,801,732,112,117,562,496,37,938,641,720,756,518,731,816,781,637,197,674,665,771,522,42,526,775,218,510,103,612,397,639,143,323,946,812,389,917,547,14,316,76,627,290,252,577,730,652,574,247,485,266,460,650,234,705,950,111,628,945,296,763,789,288,382,726,559,193,235,556,302,7,183,212,710,359,625,689,587,249,64,281,237,651,785,437,795,456,604,88,54,425,920,346,79,986,66,493,833,670,127,644,926,528,370,696,953,98,58,122,52,968,858,820,586,915,497,245,204,225,11,672,253,446,387,350,375,902,969,401,433,47,999,770,823,688,181,971,724,978,160,300,461,327,916,904,109,663,760,25,679,676,745,265,877,872,495,788,154,263,322,550,539,481,354,360,500,244,706,125,347,185,339,582,636,911,964,619,12,608,118,649,736,414,603,762,246,417,445,849,23,786,779,373,677,617,343,172,758,165,311,694,477,572,102,891,881,506,451,780,470,405,673,362,211,961,1,515,596,543,944,697,857,879,551,228,655,755,967,28,661,734,422,817,396,402,533,620,767,275,719,558,474,196,84,808,56,531,878,85,511,491,293,955,611,578,742,660,541,853,822,602,593,557,970,126,749,303,751,69,794,614,894,116,472,207,678,462,15,532,208,483,647,897,836,690,570,827,415,384,334,623,145,454,683,925,908,805,753,443,200,328,201,284,310,654,72,918,842,834,856,585,251,802,199,844,825,824,830,190,92,195,987,71,342,108,305,579,338,162,951,376,351,250,530,564,184,695,238,548,465,40,523,17,979,216,766,479,549,692,947,403,167,977,659,406,701,319,983,2,501,566,345,594,900,966,616,704,177,634,89,186,272,306,957,268,630,699,205,890,135,429,45,716,48,3,27,188,314,36,973,984,409,575,70,50,168,65,9]","arrowleft","","true","0","1","300","1000","[""0046_N1000_K0300_CLIQUE"",""0081_N1000_K0300_NOCLIQUE""]"
"","","","","","audio-keyboard-response","50","88395","0.0-49.0-0.0-1.0","","null","audio_feedback/right/coin01.mp3","null","","","","","0","1","300","1000","[""0046_N1000_K0300_CLIQUE"",""0081_N1000_K0300_NOCLIQUE""]"
"","","","","","canvas-keyboard-response","51","90500","0.0-50.0-0.0-0.0","","1156","","arrowright","[963,640,832,584,750,799,979,220,253,984,712,894,315,463,332,596,116,330,916,787,548,93,5,563,978,542,869,728,376,658,553,18,629,244,473,383,422,67,293,968,288,428,977,599,55,228,268,929,418,652,212,379,386,477,754,718,129,912,68,144,502,513,160,384,163,650,572,381,951,159,827,290,871,23,56,634,351,670,77,301,99,231,893,354,732,646,605,913,269,216,292,377,183,170,946,927,930,414,687,911,957,70,89,880,274,373,452,967,51,623,362,527,627,511,87,625,304,403,135,764,875,202,865,110,860,530,10,197,592,953,834,576,413,368,370,62,352,864,279,983,962,958,105,944,196,396,127,308,693,892,801,317,783,826,125,361,538,450,496,769,393,881,641,564,616,444,480,925,841,922,877,21,307,743,937,148,703,79,472,38,611,837,294,103,917,229,879,493,950,521,261,744,567,208,604,906,889,959,947,19,322,83,631,314,337,988,761,823,158,793,283,137,840,628,767,11,263,992,642,348,674,402,612,665,400,585,900,522,375,617,505,464,791,227,531,747,574,798,920,234,504,49,338,297,302,40,394,662,180,387,479,928,844,852,666,669,54,680,566,470,335,429,678,896,884,447,829,176,824,559,932,276,311,339,856,26,250,784,443,609,528,547,986,656,924,151,868,830,136,221,581,910,142,695,706,305,481,985,816,853,679,140,423,124,215,529,432,552,316,25,908,278,331,757,942,525,696,326,874,975,327,887,774,580,457,164,586,671,149,714,806,560,321,336,653,6,704,299,987,45,201,487,849,614,111,84,193,122,970,692,410,405,177,497,285,42,991,976,845,643,71,166,280,685,768,114,363,618,863,385,758,128,173,526,230,273,360,543,22,345,516,499,344,839,323,239,1,720,357,41,47,34,36,822,287,773,591,195,417,672,698,262,495,102,556,760,76,358,690,404,343,755,435,862,682,107,65,867,475,713,48,252,533,954,178,847,192,722,782,882,312,37,733,717,0,421,325,284,24,86,342,378,593,132,43,708,329,169,817,213,815,996,952,235,964,508,738,319,807,483,303,608,198,449,30,765,15,969,364,813,846,809,811,117,796,659,4,739,661,814,740,999,838,736,249,707,72,8,17,207,168,456,92,150,462,657,730,324,52,990,569,241,558,419,282,95,59,75,16,100,254,81,204,306,113,498,415,534,833,156,697,112,595,503,242,802,109,891,602,568,974,565,639,28,162,353,691,719,295,246,742,223,737,425,524,291,433,619,993,721,535,438,931,245,726,108,247,194,772,259,578,724,490,771,532,981,44,637,741,731,638,501,190,904,940,74,272,238,786,694,123,620,897,588,610,211,411,514,735,85,520,398,725,989,886,14,179,465,251,960,486,686,27,523,388,606,133,372,349,810,777,971,915,518,310,753,888,454,182,66,803,749,420,392,380,491,551,561,12,90,956,579,517,570,622,673,870,851,903,710,624,318,949,256,436,441,668,835,804,455,537,828,759,549,206,181,766,365,401,369,346,167,205,745,222,459,347,831,286,850,427,818,97,715,371,374,939,902,426,9,355,746,509,926,161,512,636,121,189,857,907,805,492,859,716,507,32,923,367,727,430,478,812,762,589,729,106,615,583,890,648,468,933,453,154,395,226,597,476,873,265,677,104,130,577,488,683,688,982,264,73,775,701,233,296,20,165,240,866,482,645,899,431,7,573,776,153,451,998,82,780,33,399,858,557,382,667,770,271,562,955,664,298,961,300,440,408,270,654,973,210,790,785,91,474,995,145,872,936,391,101,260,571,333,2,500,58,550,994,407,200,188,644,876,61,905,651,31,467,663,510,675,883,819,601,792,898,965,554,64,795,115,546,484,540,146,966,171,469,711,621,341,199,684,794,702,434,603,751,649,248,575,590,935,921,997,39,943,539,80,885,676,118,734,763,519,789,689,460,515,587,536,186,29,938,134,752,119,289,340,152,709,218,157,489,334,778,267,397,909,275,88,633,600,972,257,723,442,779,800,138,139,96,141,356,131,854,217,544,175,185,219,232,237,825,46,191,409,655,143,555,705,406,78,485,756,172,848,980,69,594,439,934,895,389,781,630,855,3,461,582,174,350,266,861,203,255,366,224,35,412,821,63,660,258,13,184,797,445,545,320,681,941,236,748,494,945,57,700,214,948,243,635,390,541,918,613,843,919,126,914,209,458,424,598,466,448,277,842,788,647,155,820,699,120,313,808,187,309,471,328,60,437,506,225,147,416,836,50,98,446,53,281,359,94,607,901,626,632,878]","arrowright","","true","0","2","267","1000","[""0011_N1000_K0267_NOCLIQUE"",""0088_N1000_K0267_CLIQUE""]"
"","","","","","audio-keyboard-response","52","91971","0.0-50.0-0.0-1.0","","null","audio_feedback/right/coin01.mp3","null","","","","","0","2","267","1000","[""0011_N1000_K0267_NOCLIQUE"",""0088_N1000_K0267_CLIQUE""]"
"","","","","","canvas-keyboard-response","53","93514","0.0-51.0-0.0-0.0","","613","","arrowleft","[926,554,402,743,851,560,739,411,0,715,245,615,594,130,380,783,206,943,931,26,234,297,145,51,86,587,667,924,356,577,949,790,630,3,358,553,626,774,192,888,88,907,974,935,237,779,820,60,789,31,979,159,903,661,981,972,177,181,811,893,144,172,483,627,73,427,132,271,531,417,863,824,9,157,136,334,847,628,75,976,944,289,304,590,153,288,671,703,714,818,562,677,143,672,830,342,541,911,814,33,993,35,668,276,197,569,784,195,898,186,816,809,7,825,772,751,275,773,744,17,497,12,262,781,353,203,174,470,313,404,532,306,834,883,902,971,216,912,255,396,735,378,498,450,80,581,892,513,54,419,988,807,176,468,212,124,451,839,340,752,897,792,37,720,654,966,188,803,330,4,178,74,624,831,642,142,461,800,446,348,741,936,325,812,846,514,695,194,323,862,149,579,963,845,299,123,400,10,908,598,93,189,42,853,595,767,263,682,617,546,501,122,813,675,614,1,138,622,495,199,215,788,544,397,369,112,382,428,431,646,518,329,999,445,582,344,953,651,398,922,337,850,423,527,99,469,166,412,45,962,22,731,631,801,551,314,433,728,438,521,242,529,499,156,292,171,599,20,511,505,170,619,343,58,506,609,694,98,175,520,702,302,57,241,717,440,690,707,727,109,264,347,890,637,385,449,327,946,359,547,125,28,732,103,413,56,463,462,265,336,432,548,867,309,354,550,211,990,583,210,19,148,852,510,782,704,482,92,308,447,572,538,403,941,937,836,571,545,209,641,884,301,373,84,833,115,466,910,977,226,435,239,648,280,957,950,247,477,48,377,566,72,722,859,975,785,18,492,723,108,543,120,528,535,991,131,697,116,167,196,795,425,128,268,879,303,414,896,576,994,871,452,335,491,841,235,504,680,375,475,257,923,819,860,465,346,605,686,386,476,716,328,392,150,487,998,310,555,191,182,684,710,44,64,357,793,689,95,967,61,200,274,496,676,956,585,229,989,205,39,712,848,455,844,542,76,613,507,82,441,567,798,260,880,593,882,549,331,290,983,207,669,620,107,552,787,561,586,420,269,472,464,87,355,395,575,471,665,777,394,524,738,429,706,982,517,139,666,987,985,745,104,238,365,687,190,929,251,955,222,760,480,719,282,100,635,806,40,596,387,295,184,133,490,213,796,927,361,899,399,769,424,368,21,307,503,105,559,321,155,652,232,8,870,267,602,294,633,23,799,2,921,422,102,168,705,612,29,638,522,815,151,864,372,362,827,473,952,96,246,770,478,887,938,601,750,277,5,364,805,141,291,533,540,256,485,401,180,164,421,59,383,221,442,724,766,729,217,748,198,338,776,407,730,390,808,106,629,118,281,832,426,219,913,481,643,709,634,570,756,158,640,94,81,895,430,121,780,349,250,479,969,193,644,881,636,67,835,474,129,765,876,284,749,283,837,718,101,584,700,71,270,997,68,488,663,47,408,459,16,948,900,958,539,418,223,986,940,868,904,573,603,558,580,457,508,947,381,758,305,688,439,625,530,389,137,861,91,273,632,36,173,537,657,849,453,928,984,623,843,886,287,486,978,53,70,857,621,11,810,932,240,536,516,227,526,416,332,285,591,55,889,747,965,597,734,489,973,311,266,460,370,754,437,315,708,90,875,220,658,146,278,436,15,725,639,393,733,826,951,691,114,83,360,259,670,261,24,49,737,607,78,183,204,218,233,117,699,797,755,604,30,822,140,920,916,319,46,312,968,611,578,901,244,650,405,185,865,154,933,13,201,339,161,147,272,493,674,970,877,366,600,252,858,656,778,726,919,659,823,817,764,162,874,127,828,202,821,960,645,917,574,316,391,494,225,891,318,415,753,324,996,610,771,515,791,869,763,885,208,660,565,458,954,409,606,126,662,992,456,713,829,854,258,961,243,163,872,63,43,443,134,925,326,873,69,736,300,352,25,152,775,838,224,701,746,692,253,855,444,557,160,50,333,32,279,52,502,866,945,454,187,34,296,367,38,113,79,230,673,685,664,519,740,655,410,363,350,678,293,649,804,934,534,41,914,512,345,322,588,878,298,448,165,618,249,568,964,384,179,286,320,236,915,27,647,6,564,759,254,592,65,768,525,231,679,563,608,959,388,909,786,856,509,840,62,111,484,693,351,905,842,761,721,228,653,135,248,556,341,110,930,169,906,85,379,89,683,77,66,762,757,500,523,406,894,802,434,317,742,371,467,995,980,214,711,918,681,939,942,119,376,698,794,14,696,97,589,616,374]","arrowleft","","true","0","3","267","1000","[""0089_N1000_K0267_CLIQUE"",""0074_N1000_K0267_NOCLIQUE""]"
"","","","","","audio-keyboard-response","54","94990","0.0-51.0-0.0-1.0","","null","audio_feedback/right/coin01.mp3","null","","","","","0","3","267","1000","[""0089_N1000_K0267_CLIQUE"",""0074_N1000_K0267_NOCLIQUE""]"
"","","","","","canvas-keyboard-response","55","96548","0.0-52.0-0.0-0.0","","624","","arrowleft","[665,877,964,152,664,812,32,954,577,104,960,18,411,343,747,967,874,498,139,113,611,241,836,191,72,932,123,859,632,257,940,979,717,956,370,96,276,250,311,397,40,614,963,760,570,872,499,741,589,961,430,571,619,467,615,121,539,227,860,471,516,443,155,234,277,846,218,948,293,156,281,911,791,403,828,648,97,308,380,369,556,520,990,942,596,275,844,379,923,17,86,928,710,881,866,85,236,984,33,356,175,982,617,698,578,507,575,593,6,817,99,892,829,350,212,95,107,968,232,705,746,888,895,849,274,673,190,283,492,764,271,995,312,690,464,474,291,853,296,754,920,854,739,662,748,616,745,55,74,351,599,249,145,435,781,286,773,219,843,251,204,194,804,546,415,608,670,794,398,772,476,809,222,873,743,889,625,347,713,977,672,475,92,671,959,151,73,302,256,120,401,423,327,77,630,457,606,914,886,269,642,898,585,557,778,976,524,702,90,2,427,550,188,367,955,509,722,494,871,337,696,600,131,890,230,47,992,105,129,49,485,79,247,334,635,752,541,985,735,989,50,328,801,756,697,198,618,135,181,470,581,714,469,806,681,766,52,909,130,800,134,376,847,503,725,838,790,915,535,21,366,98,147,228,268,365,196,292,8,322,684,728,385,420,558,70,510,727,811,57,514,42,677,602,704,264,716,280,254,214,473,225,76,359,612,719,429,996,336,349,192,88,41,31,740,750,816,294,37,138,400,341,986,613,30,166,1,685,957,488,481,439,884,869,655,769,290,405,364,644,65,56,143,361,60,682,925,848,372,554,168,389,949,981,701,751,368,35,226,640,865,822,94,720,946,708,465,223,863,335,645,479,358,91,799,259,532,686,784,454,805,515,174,458,490,565,278,255,193,870,555,310,216,122,533,116,161,66,749,667,178,553,26,207,436,71,561,511,355,84,518,767,472,759,119,124,545,402,935,580,201,68,891,970,808,793,831,819,388,371,125,572,876,861,723,303,500,339,64,568,663,309,597,69,404,820,965,738,711,855,29,167,880,823,692,262,936,171,896,994,905,910,25,542,573,755,531,787,333,788,374,636,900,693,421,998,463,183,455,146,634,489,903,209,164,678,483,195,649,231,607,233,930,933,729,517,112,582,709,173,736,841,656,83,621,237,530,450,109,141,779,14,224,149,629,386,203,775,348,897,133,978,431,917,332,282,856,626,304,217,576,248,590,301,265,186,522,258,144,13,513,19,999,451,243,305,496,252,176,288,798,215,906,679,362,652,353,444,939,426,875,491,200,899,973,24,504,937,261,969,128,126,845,718,413,89,393,422,560,345,28,59,352,943,659,852,101,864,501,417,637,938,158,832,461,983,482,285,519,382,442,150,770,7,142,594,851,579,163,785,67,768,924,396,189,835,497,737,477,595,378,814,22,326,598,82,953,340,263,622,287,763,16,58,375,154,771,12,952,742,114,363,564,329,87,20,894,840,324,383,941,548,605,316,3,588,272,821,266,297,409,75,660,118,715,657,547,592,776,777,641,202,235,330,323,972,726,733,534,23,950,424,486,273,699,837,381,43,44,157,918,387,320,944,93,803,508,466,462,850,502,80,669,638,687,633,753,153,418,666,484,360,651,650,211,179,416,307,27,229,185,927,833,505,789,559,338,646,238,197,604,177,988,295,240,758,902,239,357,675,206,893,680,947,868,826,117,325,468,414,244,437,691,384,921,62,975,434,48,620,478,658,390,38,688,78,695,246,449,456,344,887,639,783,446,537,127,807,674,11,39,931,904,182,609,818,922,132,907,441,102,757,774,991,882,867,452,566,525,761,213,683,730,792,780,549,453,879,270,744,929,839,342,563,694,208,951,538,815,53,610,438,802,945,318,536,623,574,762,512,603,267,980,425,562,136,408,786,493,36,782,765,410,862,526,825,54,523,797,314,108,707,306,731,721,187,993,631,544,148,428,551,160,4,913,703,601,521,966,813,459,567,628,591,407,172,205,732,724,700,110,997,180,912,399,5,221,842,569,81,795,460,661,137,643,858,827,528,319,299,103,654,317,445,45,377,971,315,796,587,584,527,552,412,440,321,289,165,331,824,885,394,926,298,934,284,974,987,9,883,433,958,111,170,253,346,242,0,834,506,540,810,830,406,391,495,313,199,169,210,919,962,668,480,260,529,901,10,583,354,63,184,916,734,15,653,106,279,586,395,689,61,373,448,676,419,647,51,706,432,220,159,392,624,46,543,878,34,162,100,447,300,115,857,908,245,627,487,712,140]","arrowleft","","true","0","4","233","1000","[""0016_N1000_K0233_CLIQUE"",""0090_N1000_K0233_NOCLIQUE""]"
"","","","","","audio-keyboard-response","56","98008","0.0-52.0-0.0-1.0","","null","audio_feedback/right/coin01.mp3","null","","","","","0","4","233","1000","[""0016_N1000_K0233_CLIQUE"",""0090_N1000_K0233_NOCLIQUE""]"
"","","","","","canvas-keyboard-response","57","99619","0.0-53.0-0.0-0.0","","623","","arrowleft","[33,952,967,261,799,52,478,320,447,23,207,657,461,412,866,595,632,757,362,528,793,734,135,563,606,56,949,248,862,299,257,290,656,694,937,832,539,78,571,334,959,942,414,489,430,344,947,633,97,684,692,167,407,594,550,153,831,148,29,236,986,154,751,216,860,269,82,62,814,415,566,228,554,997,197,1,182,39,687,522,998,43,573,433,634,209,775,639,689,189,175,203,703,419,836,545,752,881,784,30,444,650,87,991,602,127,817,143,71,373,540,901,394,672,239,624,568,274,125,304,408,302,22,574,355,382,350,826,623,347,838,917,123,65,102,453,224,462,686,864,712,889,409,431,673,652,81,674,919,256,58,641,891,214,950,676,664,147,777,368,364,551,18,119,77,254,747,503,493,792,902,788,215,397,510,291,992,83,74,100,941,275,872,482,637,491,897,756,300,283,264,614,388,570,221,742,190,141,887,607,908,555,126,158,432,750,842,287,921,857,536,879,600,938,818,679,132,124,68,386,858,96,619,466,278,802,366,485,49,667,993,586,721,340,582,149,852,970,535,464,680,98,903,473,541,907,435,743,504,471,859,232,367,533,801,601,92,593,90,785,525,245,809,823,341,739,59,580,994,211,588,401,861,534,524,25,546,184,222,490,564,191,577,88,246,560,474,188,612,770,767,557,513,19,470,196,727,850,807,720,837,310,323,454,437,370,418,336,813,655,886,180,737,531,849,605,989,272,438,108,561,512,298,829,711,974,296,17,237,984,152,596,501,134,104,874,103,76,893,885,628,729,369,253,622,384,797,91,773,266,765,548,199,233,544,359,51,681,758,642,113,509,781,387,753,835,724,458,728,995,105,668,579,198,665,24,708,139,759,358,700,987,821,428,702,21,460,80,417,45,500,258,400,951,171,151,963,131,348,882,289,142,834,55,627,160,79,312,962,961,671,899,107,841,122,247,297,643,169,116,220,532,543,678,888,349,933,385,591,346,975,73,709,162,26,46,795,172,307,761,44,985,441,286,268,880,662,436,342,827,796,690,973,839,704,229,654,960,507,351,920,745,517,50,11,204,698,977,354,95,980,114,913,7,396,325,5,150,15,790,581,661,578,584,693,957,398,645,192,558,496,617,870,378,855,333,726,273,760,120,576,16,863,982,506,815,451,335,717,376,611,940,800,565,426,371,277,218,243,200,853,31,682,94,660,136,649,332,279,115,60,37,459,164,208,804,572,284,63,954,976,331,32,69,930,945,669,121,356,294,519,707,526,183,159,851,202,875,168,176,805,819,484,625,806,481,932,416,547,109,810,847,746,599,163,730,845,345,111,715,36,701,718,110,306,848,480,130,518,145,497,969,559,309,895,877,562,61,321,552,782,769,968,983,488,234,301,6,825,463,235,227,223,666,201,856,670,195,363,922,421,948,372,865,699,249,338,240,365,13,352,798,262,194,820,392,981,740,884,328,816,966,918,955,487,410,185,843,931,231,337,28,324,35,217,629,467,598,511,530,604,779,677,282,86,423,929,186,106,508,440,722,313,553,318,112,542,179,9,697,505,892,129,928,241,72,749,830,67,322,174,377,319,787,911,193,569,988,439,762,630,714,705,446,181,339,357,944,964,281,383,267,213,93,833,648,250,515,137,34,259,427,360,317,894,927,924,710,14,685,3,57,12,495,828,404,315,263,255,406,443,638,735,280,429,905,374,456,776,295,450,731,293,476,763,990,170,971,943,527,696,173,118,754,238,822,683,393,425,896,567,66,965,498,477,958,99,946,890,54,854,276,538,133,499,616,979,270,405,226,4,549,8,635,20,786,420,389,996,925,840,47,390,609,472,936,904,613,41,455,597,603,230,42,271,620,529,846,824,138,768,403,719,585,445,448,732,329,867,953,469,583,27,631,914,316,399,2,646,774,288,161,494,871,361,210,326,744,640,391,265,212,85,381,38,330,741,755,999,766,725,738,926,883,713,915,251,909,117,589,411,723,144,644,140,0,343,434,812,636,869,413,479,876,590,53,556,906,978,292,422,40,706,912,811,956,84,900,659,923,844,610,736,353,772,626,520,379,939,658,308,178,205,778,260,789,615,10,516,156,177,452,935,691,873,380,327,647,166,252,521,575,618,972,285,780,523,587,592,716,244,305,101,157,219,663,514,486,483,492,70,449,764,608,783,688,465,457,442,146,934,898,695,916,621,128,395,375,733,402,675,748,165,311,64,225,89,502,475,537,187,910,808,48,206,314,803,75,242,791,155,468,653,868,303,771,651,878,424,794]","arrowleft","","true","0","5","233","1000","[""0017_N1000_K0233_CLIQUE"",""0062_N1000_K0233_NOCLIQUE""]"
"","","","","","audio-keyboard-response","58","101074","0.0-53.0-0.0-1.0","","null","audio_feedback/right/coin01.mp3","null","","","","","0","5","233","1000","[""0017_N1000_K0233_CLIQUE"",""0062_N1000_K0233_NOCLIQUE""]"
"","","","","","canvas-keyboard-response","59","102615","0.0-54.0-0.0-0.0","","600","","arrowright","[920,523,79,674,779,413,406,313,4,377,348,319,474,671,967,412,235,146,639,128,698,847,753,98,987,833,423,788,380,259,430,15,42,825,86,570,930,166,841,29,89,676,237,738,824,767,793,986,393,440,555,381,511,165,680,688,939,414,353,467,716,577,317,500,171,657,586,338,490,257,743,579,895,114,92,701,427,893,401,495,959,870,539,789,296,402,352,515,589,230,187,729,94,969,215,33,133,407,509,744,981,960,119,435,347,150,139,113,80,862,845,800,409,68,121,384,624,606,339,601,476,951,315,20,82,936,673,899,991,456,422,897,811,403,741,621,926,111,739,746,31,769,567,255,239,541,995,653,458,346,27,572,256,619,56,794,814,699,281,765,93,896,63,692,978,227,938,783,36,519,392,947,651,664,309,473,975,386,454,659,839,242,278,273,356,87,934,206,749,201,669,952,279,948,123,521,323,366,872,581,537,727,613,222,96,389,305,173,410,364,485,450,251,7,51,578,890,528,229,301,124,684,942,22,308,979,629,662,821,69,316,576,985,131,190,53,745,321,707,57,778,630,551,2,625,117,152,843,438,864,626,693,10,109,827,39,617,282,580,71,973,602,341,24,886,873,714,945,25,0,449,436,615,875,998,709,140,369,40,343,647,609,374,851,52,856,432,632,550,88,11,484,805,148,777,840,913,527,391,984,479,108,822,949,940,915,668,812,216,766,12,163,238,607,525,203,974,196,142,494,122,818,311,961,245,189,327,775,489,545,941,728,628,996,595,231,477,828,623,32,737,690,965,64,663,376,462,604,715,803,451,970,65,388,60,730,850,276,533,925,804,354,318,23,675,694,345,415,271,731,758,90,465,646,610,459,529,188,54,830,820,268,697,6,542,696,105,144,554,218,702,280,950,531,944,351,953,43,635,857,911,437,310,943,903,813,929,560,125,234,289,362,400,212,236,170,143,552,145,819,691,300,443,420,340,754,55,104,357,429,292,126,889,585,908,917,76,861,756,50,928,358,757,162,772,294,633,631,641,30,547,592,522,524,498,590,191,38,83,295,14,200,475,483,977,712,905,672,620,225,637,202,433,517,866,844,924,997,312,505,302,559,8,888,921,972,132,588,470,933,46,84,197,395,654,512,762,81,195,499,272,608,780,344,100,457,390,287,134,382,771,792,865,448,640,431,28,336,442,466,655,161,365,461,174,513,891,66,736,418,747,518,882,176,504,536,898,768,481,120,871,67,750,530,834,97,78,992,763,9,274,48,16,994,328,398,252,993,260,496,596,798,553,849,705,616,337,250,568,107,759,306,394,801,919,892,314,217,611,514,717,383,665,359,748,683,502,922,774,275,988,879,193,129,558,157,935,713,808,963,349,627,77,243,363,781,557,213,177,428,797,860,58,574,103,116,127,719,3,439,184,426,480,634,636,487,751,785,790,815,916,884,379,966,526,723,233,49,194,540,876,874,361,695,254,810,70,291,155,168,373,130,136,62,937,710,597,612,644,906,508,902,650,156,244,304,452,829,732,956,556,446,325,853,885,192,208,791,290,110,722,285,221,228,493,724,478,270,649,72,444,322,520,360,999,962,182,990,598,183,331,482,267,971,85,761,240,175,562,404,211,799,726,417,561,102,914,614,320,638,887,154,405,725,330,760,703,740,946,181,752,826,878,210,618,648,158,842,565,721,367,355,932,419,408,652,770,584,667,333,980,138,603,232,566,350,169,858,954,269,370,147,645,543,261,284,776,73,17,249,293,298,838,424,324,931,957,5,179,453,682,910,204,95,199,869,219,506,258,61,532,958,831,582,253,59,501,283,137,901,711,198,809,734,660,549,180,806,375,411,816,867,507,681,464,307,460,909,708,742,837,706,835,718,538,224,859,266,1,802,877,787,548,700,535,587,583,387,445,115,599,288,44,796,164,573,904,854,594,463,686,151,434,868,622,656,516,19,670,720,964,75,658,687,492,329,160,786,214,91,912,689,425,41,593,989,546,441,823,836,247,976,21,491,35,733,846,755,303,368,679,396,488,918,907,332,286,685,186,927,342,378,45,277,472,246,47,34,74,852,894,666,385,106,605,416,264,569,209,371,13,299,372,571,982,883,207,848,223,397,335,159,167,900,37,101,764,642,220,643,807,447,326,534,135,704,141,575,263,881,968,18,600,503,735,297,880,955,226,265,112,564,26,399,118,262,149,510,421,99,661,863,677,248,855,178,455,773,205,469,817,923,544,468,832,591,782,471,795,784,334,185,241,497,563,678,153,983,172,486]","arrowright","","true","0","6","217","1000","[""0095_N1000_K0217_NOCLIQUE"",""0014_N1000_K0217_CLIQUE""]"
"","","","","","audio-keyboard-response","60","104069","0.0-54.0-0.0-1.0","","null","audio_feedback/right/coin01.mp3","null","","","","","0","6","217","1000","[""0095_N1000_K0217_NOCLIQUE"",""0014_N1000_K0217_CLIQUE""]"
"","","","","","canvas-keyboard-response","61","105560","0.0-55.0-0.0-0.0","","567","","arrowleft","[318,159,827,295,10,365,978,407,926,817,572,723,741,229,155,32,361,139,245,840,9,129,942,684,957,25,348,549,418,423,171,727,179,600,545,927,770,578,659,106,45,88,792,520,487,497,81,268,137,168,282,553,403,982,453,51,183,192,764,434,336,583,709,360,151,746,988,500,673,357,40,959,559,355,621,819,152,464,783,219,63,414,620,226,394,379,616,622,293,536,405,691,359,224,624,292,863,193,110,194,825,448,910,298,339,196,878,726,277,472,74,276,713,663,606,93,285,889,452,413,239,160,532,739,64,542,101,386,983,755,775,378,286,205,818,364,774,603,443,574,203,891,420,105,639,417,187,111,629,743,119,762,12,287,375,689,6,844,410,62,143,569,517,573,979,518,200,641,897,721,697,671,99,465,728,181,860,804,87,222,328,841,14,53,596,95,253,626,602,274,576,388,716,457,134,566,117,711,857,751,676,244,11,665,236,956,231,484,646,510,672,56,717,758,505,210,655,929,184,52,992,424,297,367,191,692,395,688,449,997,182,22,267,322,164,821,649,148,29,372,429,46,491,896,132,779,734,699,353,756,765,805,428,748,468,785,102,463,338,803,173,954,404,915,851,848,838,340,875,780,686,398,324,675,661,738,943,108,280,660,214,24,877,521,642,362,949,916,677,511,991,614,422,163,637,114,512,75,501,161,944,984,1,397,68,589,331,444,425,13,144,757,850,593,138,427,432,854,522,938,197,103,514,599,437,237,325,538,546,400,898,592,67,843,4,66,568,974,905,445,265,714,884,524,808,190,833,8,120,876,261,554,35,60,185,800,486,215,917,533,644,633,142,84,595,495,133,296,387,115,694,591,315,264,98,243,849,619,788,302,440,772,170,290,221,377,678,868,722,972,370,248,912,131,122,249,781,632,724,609,725,548,885,234,39,399,708,483,354,212,670,128,419,332,406,507,801,558,50,178,374,477,80,401,715,7,793,790,349,969,740,351,703,43,766,852,247,373,754,252,892,289,493,72,552,933,411,127,515,685,125,539,48,242,541,531,54,971,504,909,177,499,255,107,479,240,509,381,963,636,763,872,635,498,508,320,643,888,720,831,89,342,481,228,630,931,299,146,953,250,828,291,934,317,881,794,454,911,92,147,482,987,466,153,729,523,281,460,669,235,303,42,955,707,648,275,887,199,408,919,376,220,967,830,879,777,426,941,343,904,771,647,925,435,238,930,496,49,540,693,71,747,640,965,169,326,580,44,402,352,369,977,165,506,116,570,537,784,485,679,480,795,47,658,198,441,123,882,59,628,319,666,279,278,847,856,57,19,442,924,232,283,837,346,732,594,309,773,796,333,935,461,932,490,861,30,731,690,823,555,308,835,700,223,870,682,968,798,130,683,329,415,525,412,455,363,26,323,608,920,973,321,409,902,225,271,662,300,752,366,156,760,719,567,704,431,529,899,735,867,802,556,90,503,478,810,502,316,456,807,776,674,563,113,149,913,530,543,447,893,263,656,712,206,824,797,341,814,625,597,590,650,816,834,964,76,706,227,383,667,681,167,557,162,585,31,70,951,396,822,462,83,380,936,611,914,58,527,391,94,260,207,230,314,312,112,564,124,952,782,450,2,958,918,998,702,989,294,77,356,392,313,812,256,327,980,186,571,513,266,270,994,382,273,607,473,262,948,433,950,534,217,389,859,966,890,310,895,696,698,767,829,613,579,78,421,612,65,304,307,55,839,587,3,172,335,390,218,561,73,0,436,430,18,687,962,438,330,469,806,61,908,550,862,85,638,873,528,575,41,393,166,737,82,150,157,586,305,451,826,990,858,446,653,631,753,874,718,33,334,961,516,526,634,257,345,901,947,869,27,158,864,174,118,778,189,5,140,121,488,368,652,615,813,96,627,618,836,306,494,745,986,489,976,213,16,258,241,69,787,535,86,701,842,109,846,946,906,135,584,551,993,786,853,695,180,208,519,769,209,34,581,598,202,605,233,664,254,104,900,705,470,789,799,832,251,204,38,36,544,145,680,668,654,475,588,97,474,601,937,768,970,565,272,201,562,733,759,21,945,939,820,742,347,921,880,604,358,855,866,350,476,815,211,560,981,617,371,999,439,736,657,710,259,337,923,492,284,623,845,894,384,922,344,761,175,100,458,996,883,269,645,17,216,577,126,301,176,28,928,20,865,311,907,188,288,547,459,582,940,136,195,960,651,79,154,471,37,791,730,385,23,750,985,141,975,811,467,995,809,91,416,15,886,903,744,749,871,246,610]","arrowleft","","true","0","7","217","1000","[""0075_N1000_K0217_CLIQUE"",""0036_N1000_K0217_NOCLIQUE""]"
"","","","","","audio-keyboard-response","62","107018","0.0-55.0-0.0-1.0","","null","audio_feedback/right/coin01.mp3","null","","","","","0","7","217","1000","[""0075_N1000_K0217_CLIQUE"",""0036_N1000_K0217_NOCLIQUE""]"
"","","","","","canvas-keyboard-response","63","108461","0.0-56.0-0.0-0.0","","492","","arrowright","[273,73,976,213,647,784,757,968,370,36,927,696,393,676,689,588,308,714,62,269,34,448,456,180,47,952,603,853,872,194,477,335,454,219,276,331,52,457,444,183,339,207,922,326,558,479,35,383,618,507,606,866,590,710,460,217,836,832,850,484,761,208,899,697,852,414,502,620,760,286,497,220,785,956,406,926,929,138,378,381,840,692,541,496,176,525,622,739,721,791,797,147,950,433,86,307,399,529,779,365,759,343,30,387,260,816,241,471,702,614,842,744,163,919,397,883,123,27,231,29,488,311,765,670,873,275,974,984,729,135,318,768,574,32,777,815,879,887,72,975,18,152,234,330,223,182,633,512,924,8,921,157,310,349,39,44,377,775,895,103,323,982,403,544,99,449,187,936,668,948,778,158,226,268,148,43,363,26,725,945,680,124,583,735,391,954,881,59,561,830,527,23,411,423,510,554,280,132,619,958,154,452,671,754,998,570,428,519,774,282,113,465,382,407,153,246,336,287,146,821,814,871,119,46,116,358,546,340,983,517,97,555,413,15,492,89,918,901,494,459,306,923,11,270,611,776,63,833,402,687,811,70,264,551,384,679,801,140,745,690,106,571,316,499,128,794,143,865,623,200,523,608,685,309,487,862,869,550,521,410,179,71,295,51,626,569,188,813,314,961,715,235,293,609,660,827,515,290,81,641,313,658,686,597,48,910,112,553,741,654,249,224,333,446,315,584,953,347,470,405,817,639,914,653,284,812,742,526,392,943,442,436,897,957,50,545,409,837,416,117,84,589,666,441,509,638,196,892,568,885,549,75,193,45,695,173,102,33,300,199,205,450,232,681,856,69,129,346,422,656,719,171,95,792,373,278,366,669,31,985,538,728,788,87,149,578,369,212,189,204,846,5,299,228,257,136,566,907,781,674,572,612,13,483,85,931,491,298,108,844,941,786,876,947,767,591,795,649,467,396,130,96,2,255,351,490,501,271,780,635,437,755,585,504,667,804,540,617,724,995,700,860,762,863,859,374,542,835,506,657,808,476,662,951,722,773,54,244,466,532,969,749,25,556,580,61,20,461,240,372,596,664,916,0,261,114,903,709,468,325,431,751,973,203,935,344,159,731,678,354,210,120,593,758,463,648,747,858,615,419,379,170,361,967,861,703,650,500,83,321,186,693,688,115,294,851,627,802,247,91,920,600,417,237,699,727,870,395,229,322,822,380,582,577,160,253,122,616,279,345,88,172,993,6,364,281,937,902,854,274,214,996,420,562,7,834,355,118,753,972,360,263,764,631,718,557,464,262,864,111,634,511,430,178,390,425,302,946,289,348,962,629,320,819,789,12,495,167,940,917,485,162,79,297,720,426,161,451,301,646,807,74,818,659,677,175,142,68,252,694,60,371,288,823,839,334,40,400,965,37,740,900,726,151,643,524,362,215,65,605,624,925,698,964,125,645,489,673,642,77,717,772,563,841,682,191,705,537,651,319,432,216,434,708,185,630,375,534,94,738,586,174,877,806,963,587,291,564,716,831,248,672,930,76,236,857,748,602,573,987,404,799,581,251,701,222,665,19,265,202,559,139,539,514,843,737,498,145,890,105,292,533,221,893,53,443,798,238,137,594,576,439,482,408,787,896,704,486,435,218,469,415,752,283,560,131,990,707,277,599,312,944,156,675,691,530,93,904,211,250,458,979,613,522,888,579,386,256,849,663,909,38,22,750,769,304,49,513,939,41,475,209,356,56,683,201,977,847,474,743,110,197,3,637,536,547,796,906,177,206,548,230,254,109,328,16,388,412,706,376,845,610,855,732,828,911,368,625,867,713,978,166,621,809,493,518,884,516,913,394,793,4,915,341,324,782,970,164,684,243,981,353,636,192,592,810,305,730,912,640,632,932,894,242,267,258,655,427,359,508,421,601,531,528,874,889,9,933,64,445,14,898,165,266,938,133,357,453,997,398,24,723,803,567,107,101,875,424,829,455,168,317,826,878,712,805,604,190,78,462,245,980,418,595,736,825,756,838,711,134,141,473,389,644,337,429,367,886,908,233,763,104,481,505,790,880,824,891,994,126,988,342,928,447,144,607,480,285,770,55,272,955,820,90,184,868,503,999,121,58,92,800,259,783,385,350,440,21,734,239,57,771,67,169,966,942,98,352,905,17,66,598,80,150,1,848,543,181,652,227,733,28,628,303,82,296,934,959,10,949,986,225,989,127,155,575,520,478,438,329,535,552,100,746,338,960,971,565,882,42,992,401,327,661,766,332,472,195,991,198]","arrowright","","true","0","8","200","1000","[""0078_N1000_K0200_NOCLIQUE"",""0020_N1000_K0200_CLIQUE""]"
"","","","","","audio-keyboard-response","64","109921","0.0-56.0-0.0-1.0","","null","audio_feedback/right/coin01.mp3","null","","","","","0","8","200","1000","[""0078_N1000_K0200_NOCLIQUE"",""0020_N1000_K0200_CLIQUE""]"
"","","","","","canvas-keyboard-response","65","111358","0.0-57.0-0.0-0.0","","473","","arrowleft","[10,653,821,130,949,153,679,164,860,598,354,615,508,541,165,546,868,647,140,977,193,477,266,113,488,909,644,288,65,367,870,226,438,220,973,230,244,617,818,79,498,516,900,189,720,700,395,956,465,365,599,134,482,689,341,283,217,405,209,517,765,250,833,905,825,43,183,733,415,406,11,882,275,293,265,77,842,40,369,902,336,150,877,918,492,290,793,576,625,253,203,823,886,569,636,604,764,177,718,449,301,511,884,895,126,917,545,873,372,962,976,184,92,466,970,123,298,691,869,127,238,379,837,631,169,575,360,538,975,755,321,281,3,660,835,404,645,225,389,245,196,819,933,670,554,858,514,469,5,671,408,529,52,236,158,963,436,763,759,741,378,357,806,147,957,792,163,48,985,672,714,910,633,497,515,757,67,447,677,797,650,791,958,501,945,432,865,46,348,322,303,473,443,231,172,166,815,297,359,507,410,100,111,659,392,512,146,187,676,513,989,99,373,72,719,706,56,504,558,990,851,745,600,264,400,826,132,246,692,849,495,571,33,651,563,296,628,807,83,771,767,584,828,854,460,901,940,229,694,313,903,364,897,732,654,108,307,601,167,262,349,260,96,361,214,696,50,652,173,374,424,2,261,435,21,704,178,669,458,54,862,834,385,687,666,148,929,44,78,329,781,750,822,920,355,71,715,674,916,619,579,580,429,319,160,924,363,41,928,342,639,786,82,347,627,817,398,896,590,471,430,463,932,681,646,693,861,964,746,788,979,6,603,528,683,416,906,626,104,161,15,331,510,90,496,634,532,12,993,643,304,894,863,13,981,522,561,305,813,923,853,53,179,556,662,228,464,891,441,419,315,59,308,170,306,452,152,802,846,300,585,412,664,731,523,790,776,14,686,486,62,614,713,271,411,734,839,362,480,866,629,35,752,855,7,552,978,889,783,999,19,613,780,830,810,911,702,201,346,824,820,648,878,63,983,299,208,722,583,930,343,668,310,874,800,218,194,994,943,703,675,907,744,423,847,390,149,188,506,494,330,433,30,115,960,736,536,804,302,934,966,120,418,695,434,724,312,611,832,240,794,23,396,446,272,727,756,109,980,221,658,252,998,107,712,796,470,122,176,171,259,20,892,573,991,1,247,701,841,785,254,439,468,211,384,856,39,931,26,782,358,36,986,74,85,106,391,334,125,291,182,425,726,812,904,42,705,157,133,697,248,673,988,145,606,799,959,549,76,953,968,352,263,984,883,180,735,655,707,181,353,273,559,351,560,742,608,493,98,129,237,324,758,472,589,521,955,542,490,789,568,270,377,318,467,445,520,199,680,112,185,119,311,748,766,386,422,387,518,534,850,255,474,316,454,370,778,564,45,893,431,947,487,951,453,137,235,80,982,68,610,175,630,210,607,388,75,809,142,936,205,223,192,890,531,595,420,663,881,206,524,24,948,969,667,356,17,428,572,232,174,709,632,661,921,996,749,168,450,656,710,592,774,926,770,280,375,251,562,18,623,110,737,505,779,212,950,326,717,309,249,197,417,55,138,258,368,803,965,566,338,243,708,287,102,136,777,912,500,442,489,401,366,60,215,459,451,144,939,811,124,605,967,637,143,277,787,773,594,843,872,499,577,550,547,4,279,620,685,509,840,721,775,540,276,857,974,871,284,219,383,908,292,762,16,118,207,852,525,274,864,407,444,117,657,527,61,535,485,914,587,414,198,58,537,448,397,814,162,339,743,227,327,913,593,609,919,27,937,204,596,371,479,94,440,941,9,885,649,816,0,141,461,37,484,269,382,84,698,641,618,616,103,621,624,381,344,591,491,586,402,47,829,728,234,642,294,565,751,426,95,64,222,808,876,716,476,475,421,332,952,723,350,286,31,462,578,597,899,946,927,567,526,267,753,93,760,588,582,242,159,795,97,139,89,403,665,285,602,548,543,73,8,729,51,859,754,437,992,38,867,314,519,942,295,86,155,551,922,456,186,268,961,938,195,827,747,688,289,28,135,725,533,32,427,455,944,91,738,282,880,987,128,730,320,22,216,69,805,997,768,612,337,635,761,640,241,81,394,151,481,278,57,154,995,413,972,156,190,393,539,622,239,88,555,87,114,898,340,70,848,323,116,915,838,769,256,690,257,409,317,333,798,801,879,784,553,131,483,684,530,101,25,380,888,887,376,772,925,581,831,399,875,49,570,34,638,233,121,200,678,935,66,682,328,845,699,202,740,105,191,325,345,224,502,971,711,544,335,503,836,557,844,29,739,457,478,574,213,954]","arrowleft","","true","0","9","200","1000","[""0064_N1000_K0200_CLIQUE"",""0041_N1000_K0200_NOCLIQUE""]"
"","","","","","audio-keyboard-response","66","112823","0.0-57.0-0.0-1.0","","null","audio_feedback/right/coin01.mp3","null","","","","","0","9","200","1000","[""0064_N1000_K0200_CLIQUE"",""0041_N1000_K0200_NOCLIQUE""]"
"","","","","","canvas-keyboard-response","67","114567","0.0-58.0-0.0-0.0","","772","","arrowright","[19,261,315,207,355,567,445,981,404,539,187,168,274,513,833,74,81,624,67,36,720,430,383,233,916,826,655,580,460,862,163,646,954,309,793,550,841,141,810,986,554,672,426,708,974,659,246,586,364,642,12,41,920,613,733,18,660,382,421,21,912,2,89,637,634,462,500,423,455,524,456,976,99,313,653,64,374,242,208,566,188,115,135,178,803,31,265,770,731,779,225,8,401,55,553,59,395,771,221,858,777,3,719,889,263,237,845,220,764,295,882,807,950,544,690,581,587,915,924,350,739,510,380,766,888,911,812,83,859,515,42,29,146,236,192,477,139,386,787,474,664,203,95,444,899,698,402,238,652,450,821,700,756,799,183,128,352,696,189,813,179,769,593,760,329,726,280,918,489,836,186,228,201,229,114,796,144,568,875,369,129,963,160,66,363,406,76,943,531,464,124,775,557,302,962,514,338,802,885,463,654,830,509,335,745,822,831,529,615,399,576,91,641,914,286,620,750,415,431,971,922,154,181,324,838,647,781,381,71,288,556,232,22,285,693,341,457,270,126,231,299,240,52,9,127,275,965,816,753,132,184,318,446,20,525,837,595,235,215,541,487,786,145,322,648,732,563,82,579,292,852,143,488,298,849,372,175,319,561,578,358,909,353,491,301,210,433,244,138,70,6,379,988,287,982,761,925,371,946,594,743,804,425,279,485,751,412,585,797,362,28,759,728,907,678,543,872,490,998,854,470,724,832,827,411,948,598,134,747,351,332,552,661,662,25,754,452,331,674,173,502,108,432,226,205,526,165,4,125,38,254,689,825,523,78,459,212,166,310,167,908,734,245,267,695,744,349,253,346,209,673,910,644,410,752,197,317,120,506,984,772,887,284,162,357,608,49,466,479,722,171,11,847,975,416,454,86,532,588,448,250,408,631,517,306,716,440,879,182,808,871,1,806,809,304,794,373,159,497,625,876,921,880,996,342,671,39,248,396,860,596,185,935,422,359,390,33,890,864,227,10,670,469,616,649,788,903,149,117,176,814,321,106,604,427,400,259,62,30,417,866,897,333,385,577,938,632,783,932,214,151,818,987,663,869,522,130,116,503,817,54,639,861,133,161,535,848,51,589,843,573,239,481,855,499,101,429,436,748,414,913,904,870,501,103,376,35,792,763,471,933,142,170,14,394,990,680,953,749,930,874,465,784,378,177,498,999,486,16,699,375,791,746,929,93,737,873,420,905,600,271,107,443,148,868,650,983,558,407,570,968,765,856,575,949,835,234,328,451,46,273,844,942,823,164,389,392,755,303,136,340,562,936,850,223,829,461,688,307,967,56,846,705,92,330,156,657,190,952,762,218,668,610,122,360,966,204,337,370,927,17,964,297,545,633,289,249,540,293,121,706,939,534,607,96,590,75,555,311,640,97,592,211,478,851,895,548,571,47,973,308,886,110,147,419,198,476,26,735,278,98,37,504,403,891,68,467,272,773,951,393,511,703,475,104,334,180,206,694,87,424,447,344,79,43,840,819,398,251,603,978,100,327,635,560,686,626,53,945,893,606,199,923,520,902,453,281,512,584,439,729,815,219,778,926,780,643,519,956,947,191,437,811,195,898,361,958,434,757,957,73,675,972,316,630,738,677,230,713,707,45,681,785,989,960,721,354,853,711,774,256,867,84,730,472,828,60,574,241,839,262,109,931,702,685,113,493,153,961,528,300,970,609,314,252,878,727,718,57,714,483,776,88,877,538,80,290,800,484,323,123,409,941,137,767,495,268,243,697,277,294,326,247,715,917,27,442,320,704,565,857,798,993,194,458,482,157,325,473,356,618,883,494,264,682,820,172,549,992,723,438,131,628,638,597,599,795,582,269,546,937,629,266,537,13,736,276,40,48,521,547,928,977,94,530,339,367,741,536,296,387,605,667,291,305,65,518,111,725,692,5,684,77,881,23,348,758,405,934,651,863,384,602,665,480,496,90,377,612,865,140,892,669,516,119,701,709,782,683,679,347,824,583,979,15,224,200,611,283,906,213,768,645,193,995,69,687,50,944,105,627,441,202,805,222,666,896,710,617,345,569,388,533,112,44,559,368,901,260,658,449,58,72,118,742,621,196,980,158,940,169,955,551,636,63,842,834,991,32,343,619,900,717,216,508,152,527,505,24,61,691,959,413,884,155,418,894,623,601,34,564,85,7,712,391,257,542,969,985,217,676,312,397,150,572,102,919,174,365,366,336,740,258,255,591,435,994,622,468,507,801,656,0,492,789,282,428,790,997,614]","arrowright","","true","0","10","183","1000","[""0063_N1000_K0183_NOCLIQUE"",""0004_N1000_K0183_CLIQUE""]"
"","","","","","audio-keyboard-response","68","116028","0.0-58.0-0.0-1.0","","null","audio_feedback/right/coin01.mp3","null","","","","","0","10","183","1000","[""0063_N1000_K0183_NOCLIQUE"",""0004_N1000_K0183_CLIQUE""]"
"","","","","","canvas-keyboard-response","69","117873","0.0-59.0-0.0-0.0","","835","","arrowright","[860,923,453,832,783,322,599,976,836,137,205,502,922,782,652,262,763,152,627,848,941,933,566,794,729,637,441,77,776,49,214,472,555,984,480,965,584,649,422,808,118,829,639,612,587,251,342,817,460,235,317,250,140,277,588,604,928,702,375,591,437,341,69,93,742,281,677,520,822,419,379,645,815,219,340,907,176,130,436,894,699,398,7,655,124,343,17,469,215,764,360,292,129,867,962,833,376,891,190,873,153,284,519,909,170,600,844,881,415,282,182,42,594,490,368,100,474,386,236,349,442,12,16,463,395,974,306,858,834,56,211,344,780,165,101,789,947,697,752,319,465,659,407,478,745,230,201,83,359,391,777,399,511,948,156,374,902,439,866,973,758,938,405,716,607,53,117,383,797,743,200,788,114,585,61,413,850,512,888,484,731,60,107,253,525,446,857,332,918,534,583,862,10,670,571,299,665,51,633,104,765,657,254,644,577,944,371,500,98,713,623,389,801,75,668,820,122,116,493,744,896,353,221,916,707,768,897,26,297,771,523,287,981,90,450,348,680,171,596,812,217,730,813,824,703,772,640,27,134,837,814,79,969,163,396,269,337,149,21,825,691,59,20,967,634,875,189,539,193,759,524,740,590,459,904,821,434,181,545,43,113,126,934,856,273,999,240,370,132,30,377,515,394,618,259,734,562,774,294,971,142,71,835,722,245,926,185,448,868,861,198,563,157,41,805,293,696,660,863,556,325,996,831,766,955,785,99,564,177,435,403,479,522,721,732,202,199,658,666,109,247,656,5,806,950,625,506,598,228,188,67,120,851,573,890,958,80,402,647,458,390,952,626,983,46,334,992,874,380,979,567,96,541,613,799,946,826,24,985,178,887,110,392,128,723,48,936,36,552,482,784,466,174,432,119,706,28,603,62,853,226,712,303,333,445,602,421,241,669,33,903,498,267,8,747,296,807,630,709,636,798,274,161,102,204,44,698,687,827,654,859,550,13,183,809,65,335,987,619,92,285,678,197,582,330,186,905,316,672,575,381,313,914,750,429,443,328,378,606,248,467,787,283,362,38,953,366,880,492,311,300,997,454,961,635,694,586,477,708,314,755,884,400,424,494,35,23,175,733,355,304,369,917,617,620,935,841,464,428,793,244,530,540,501,557,243,970,876,164,736,751,210,261,650,347,989,951,246,870,767,57,194,516,735,280,475,420,610,487,298,229,942,790,97,671,356,676,31,643,418,138,611,352,631,456,409,845,468,727,58,509,653,692,915,674,945,414,895,828,508,889,565,237,683,275,854,393,510,570,184,906,158,968,327,147,920,913,411,717,151,89,255,66,187,357,579,339,384,73,929,278,532,385,363,115,295,154,223,9,589,544,664,207,305,208,148,641,318,302,220,718,50,22,82,852,232,324,112,52,168,629,710,991,358,553,470,689,192,883,681,365,68,438,728,796,264,593,265,536,957,84,737,135,387,576,514,554,684,754,877,963,141,693,4,427,800,601,622,781,279,74,150,485,290,769,213,195,700,234,549,839,804,561,382,476,76,885,526,417,893,495,408,268,257,0,616,225,628,373,131,320,830,291,580,869,842,663,705,123,70,574,39,497,412,609,329,180,32,686,513,167,504,964,939,543,667,988,29,94,145,224,818,901,136,401,256,719,528,748,738,803,980,840,646,179,430,899,488,63,581,397,345,34,64,462,810,795,125,572,471,937,425,169,773,882,203,372,578,323,724,518,312,651,14,661,91,956,960,927,271,679,346,770,127,85,546,533,321,846,172,81,943,444,605,489,483,537,155,491,218,786,288,711,648,307,816,725,551,695,133,447,930,162,673,726,222,995,331,912,105,249,778,2,638,547,531,1,160,423,45,361,354,206,757,802,911,701,715,367,276,315,932,542,416,871,410,779,990,159,252,775,548,86,517,11,451,238,449,87,529,54,239,351,843,212,233,301,521,855,993,336,121,908,309,621,741,535,924,559,823,286,431,753,632,560,260,682,977,227,37,3,624,791,457,592,139,289,608,714,986,642,720,739,505,819,847,72,954,40,216,760,569,55,406,595,925,949,455,338,388,308,966,231,675,426,310,568,103,614,350,95,886,25,878,486,18,111,998,792,849,762,88,746,919,879,538,688,191,811,272,959,864,108,47,507,209,972,872,146,19,242,461,106,496,978,898,982,685,173,6,263,440,270,975,326,838,558,78,900,364,704,931,166,910,15,892,433,481,527,144,452,940,597,749,499,756,865,473,921,615,761,266,503,662,404,690,994,258,143,196]","arrowright","","true","0","11","183","1000","[""0052_N1000_K0183_NOCLIQUE"",""0018_N1000_K0183_CLIQUE""]"
"","","","","","audio-keyboard-response","70","119348","0.0-59.0-0.0-1.0","","null","audio_feedback/right/coin01.mp3","null","","","","","0","11","183","1000","[""0052_N1000_K0183_NOCLIQUE"",""0018_N1000_K0183_CLIQUE""]"
"","","","","","canvas-keyboard-response","71","120859","0.0-60.0-0.0-0.0","","538","","arrowleft","[809,450,659,197,728,928,37,298,846,927,750,501,881,415,77,797,318,618,89,147,493,185,934,736,587,3,525,589,802,814,184,201,533,605,987,382,142,832,186,827,377,34,117,391,930,733,632,623,542,700,586,98,428,195,743,801,478,432,162,364,194,93,544,601,806,88,517,658,28,717,907,226,838,663,829,812,271,595,23,430,389,482,470,95,870,917,888,164,308,979,310,45,474,16,344,893,772,326,290,274,210,237,412,813,434,82,435,336,370,219,85,575,552,696,491,157,817,119,866,198,441,651,4,39,454,126,486,989,573,322,535,413,537,685,138,532,421,530,11,792,446,167,994,708,645,1,124,932,359,641,953,143,378,264,894,983,960,6,529,755,719,32,468,876,316,294,213,770,756,231,558,401,387,847,479,35,740,374,624,293,399,319,619,668,745,955,879,499,196,654,782,70,122,859,497,259,780,762,20,241,737,191,964,997,900,890,130,456,713,202,800,361,223,507,100,680,956,773,609,607,328,255,844,677,976,646,630,457,924,407,315,988,567,643,693,440,840,420,110,121,906,667,181,915,951,631,980,766,56,735,967,495,204,584,15,897,975,403,17,747,281,366,24,321,503,550,538,150,833,834,504,652,437,141,2,787,422,531,974,309,444,485,190,404,502,334,784,551,933,647,79,5,566,487,392,132,768,790,971,522,798,249,969,923,83,949,25,379,985,898,687,679,843,577,375,261,492,355,620,892,346,990,339,467,92,268,673,460,849,270,345,251,804,655,48,113,509,916,97,424,585,711,867,245,572,774,608,965,295,810,500,534,305,653,629,749,71,954,291,393,841,720,356,779,861,72,75,465,0,498,970,706,944,187,948,860,38,961,188,54,738,217,402,42,702,414,822,562,539,528,982,327,300,597,442,218,874,453,857,691,937,920,74,464,616,340,350,670,709,775,496,212,896,579,242,165,557,183,880,144,452,320,864,239,611,957,18,769,835,133,229,103,581,875,794,714,939,946,286,602,203,959,837,901,306,469,938,781,87,824,13,958,816,358,313,754,999,448,232,311,593,285,109,253,260,744,732,115,759,640,354,845,7,373,283,329,78,341,705,118,494,343,431,791,778,330,767,546,626,878,518,8,940,889,433,966,384,785,41,256,480,131,155,49,899,913,553,727,941,302,823,398,508,369,200,347,559,192,151,473,582,739,574,104,707,699,57,206,177,490,140,776,105,145,764,278,905,590,811,388,748,410,101,282,154,697,488,952,221,848,826,984,357,853,273,865,902,686,116,664,134,689,463,730,786,681,438,524,622,263,352,262,712,275,831,76,722,265,363,783,128,570,108,634,400,405,513,545,338,94,10,869,692,526,236,12,669,926,137,603,891,986,489,648,62,862,947,596,296,741,803,90,908,14,839,159,471,594,396,445,44,977,426,312,793,935,858,314,348,277,753,220,821,466,462,484,936,30,683,233,47,910,111,884,734,182,682,439,43,67,276,662,672,372,250,742,615,850,695,73,765,153,337,788,279,962,560,160,267,588,136,443,694,411,258,752,795,600,886,51,417,613,483,248,64,246,805,661,921,287,656,519,380,642,297,563,81,208,929,386,303,972,61,807,918,635,973,234,515,771,266,63,746,408,351,583,228,112,895,65,269,991,819,304,666,716,945,475,381,419,828,950,148,156,854,943,684,96,554,376,120,703,912,644,225,882,447,877,510,931,189,565,247,332,638,175,520,698,724,458,556,639,721,243,9,91,129,665,690,280,514,914,171,760,995,547,628,416,610,576,323,55,789,516,688,84,235,796,704,102,178,425,825,451,871,459,449,548,342,199,993,436,69,968,365,59,123,996,288,725,244,174,371,815,523,731,627,418,152,598,710,146,106,409,925,855,981,868,161,114,170,394,919,60,429,135,211,455,368,390,674,729,476,540,599,139,873,650,46,176,324,621,541,842,36,383,50,169,614,885,863,149,333,289,472,757,27,678,257,325,292,851,883,125,215,636,564,511,21,675,761,569,911,240,385,481,506,561,238,284,633,718,216,758,179,301,942,349,254,168,214,726,637,903,180,568,527,701,820,80,571,830,158,230,173,40,808,591,22,612,29,19,904,763,360,68,227,461,963,53,818,107,715,998,852,836,272,52,777,543,31,592,676,335,406,723,317,205,33,477,909,649,353,555,367,163,222,625,521,86,307,99,166,423,66,209,799,362,395,978,252,193,299,872,580,331,856,604,617,922,427,536,992,657,127,887,549,58,26,751,512,660,397,671,505,606,207,224,578,172]","arrowleft","","true","0","12","167","1000","[""0055_N1000_K0167_CLIQUE"",""0038_N1000_K0167_NOCLIQUE""]"
"","","","","","audio-keyboard-response","72","122320","0.0-60.0-0.0-1.0","","null","audio_feedback/right/coin01.mp3","null","","","","","0","12","167","1000","[""0055_N1000_K0167_CLIQUE"",""0038_N1000_K0167_NOCLIQUE""]"
"","","","","","canvas-keyboard-response","73","123935","0.0-61.0-0.0-0.0","","632","","arrowleft","[724,196,567,394,376,793,326,846,343,654,465,401,641,702,837,565,463,906,915,983,106,805,23,587,733,845,628,933,886,926,351,88,495,804,91,518,451,674,410,646,549,634,49,542,439,978,649,568,177,157,941,948,461,473,882,435,51,800,35,87,693,33,229,574,760,606,521,877,227,17,83,174,436,482,311,159,99,942,913,891,653,34,866,97,242,237,843,491,77,271,639,989,293,398,409,217,517,176,824,918,265,819,279,287,186,610,336,95,249,191,995,898,93,672,425,14,890,520,138,763,596,313,148,184,168,616,207,816,348,411,743,659,953,563,829,580,429,818,61,142,643,827,66,383,21,294,930,312,72,712,685,998,2,180,887,221,781,839,505,299,481,744,198,588,264,695,496,341,40,623,130,365,922,728,476,479,650,43,957,526,642,370,943,820,722,276,346,9,165,613,374,767,573,281,419,446,885,219,900,847,259,26,721,235,813,236,204,137,160,814,280,738,857,16,380,155,677,332,868,500,754,161,269,836,973,907,638,578,441,736,938,678,480,438,621,118,750,190,329,508,122,96,873,951,60,870,876,714,844,54,305,546,543,711,353,270,4,735,399,798,555,296,874,350,192,449,462,307,530,860,241,935,981,717,213,586,94,422,576,337,974,571,215,960,143,1,487,437,367,687,993,146,277,631,956,990,897,302,647,246,740,226,459,745,694,766,416,734,635,135,637,789,3,181,605,952,223,791,212,705,648,932,257,937,811,561,912,696,354,185,81,62,593,554,298,310,454,888,630,607,171,79,80,557,947,899,275,689,510,76,984,166,624,757,360,391,547,262,187,375,175,570,210,24,864,618,812,880,698,324,139,911,999,581,688,875,183,345,273,996,892,533,720,471,977,980,929,921,71,612,551,179,178,821,894,483,865,29,640,25,10,116,704,272,944,538,129,719,855,136,697,776,440,98,317,511,817,384,105,396,406,872,52,426,901,70,467,895,831,629,182,334,665,749,84,400,992,448,46,158,690,150,768,415,149,127,201,64,669,194,579,364,39,486,36,545,250,247,322,919,48,188,976,560,676,292,964,304,663,730,509,539,101,6,222,823,119,107,323,325,792,31,936,737,109,801,958,527,485,414,670,453,761,140,267,290,622,7,405,344,917,603,577,263,759,248,402,47,115,319,112,681,558,55,920,851,123,371,553,413,636,807,421,784,57,972,931,63,32,268,385,632,850,170,758,683,239,30,8,796,569,924,928,540,583,923,786,368,113,799,725,830,584,147,774,883,154,597,456,283,320,100,656,387,274,428,245,372,651,214,965,727,532,424,904,475,739,117,78,782,590,197,896,252,224,795,502,615,144,378,591,359,835,732,962,504,209,469,152,494,840,357,614,925,582,987,773,132,42,884,167,256,619,908,104,834,472,203,682,522,503,442,562,125,377,797,193,756,420,833,770,751,316,626,131,608,853,633,255,189,666,777,251,478,349,809,552,5,234,859,617,550,780,327,404,709,753,59,849,726,195,470,775,994,803,703,489,889,748,340,535,769,620,412,27,208,295,260,328,386,949,233,544,291,838,103,910,321,970,679,808,73,363,525,56,975,477,746,655,881,501,585,211,18,318,867,397,38,564,388,699,238,684,173,169,667,986,967,790,731,710,592,67,156,764,718,706,89,657,871,599,645,13,240,86,862,966,940,450,680,513,499,395,315,954,314,464,261,959,164,366,945,120,673,741,297,559,772,338,362,393,434,342,230,126,492,15,627,909,861,124,934,939,220,785,65,484,163,832,433,308,289,723,512,595,74,331,662,742,524,856,802,611,747,162,278,858,675,529,997,445,19,432,488,381,548,594,507,309,466,153,356,447,572,765,787,232,979,927,243,602,200,729,600,390,905,658,854,826,458,971,430,879,306,671,205,828,0,379,392,452,128,108,498,300,961,114,852,41,783,12,431,22,282,794,455,134,68,231,53,172,516,111,490,519,407,664,534,963,752,946,991,691,598,779,692,771,988,985,133,460,841,788,403,806,842,288,253,536,141,893,955,444,869,715,825,902,199,566,497,28,330,382,969,286,145,228,848,589,708,44,686,863,457,982,85,707,218,515,443,644,528,514,244,418,333,225,202,609,474,506,37,903,537,950,916,755,110,716,303,58,531,701,408,556,427,355,121,69,266,352,301,216,810,815,45,285,90,822,661,82,423,358,347,668,284,968,11,604,762,493,373,468,417,778,335,206,361,523,151,575,102,258,254,92,652,625,713,660,541,601,914,369,878,700,389,339,75,50,20]","arrowleft","","true","0","13","167","1000","[""0021_N1000_K0167_CLIQUE"",""0098_N1000_K0167_NOCLIQUE""]"
"","","","","","audio-keyboard-response","74","125407","0.0-61.0-0.0-1.0","","null","audio_feedback/right/coin01.mp3","null","","","","","0","13","167","1000","[""0021_N1000_K0167_CLIQUE"",""0098_N1000_K0167_NOCLIQUE""]"
"","","","","","canvas-keyboard-response","75","127333","0.0-62.0-0.0-0.0","","959","","arrowleft","[512,125,914,751,781,160,481,557,831,455,247,43,474,253,285,891,875,671,103,895,137,933,827,393,856,440,388,272,669,465,2,574,330,778,353,610,900,468,747,507,836,568,96,7,479,1,782,984,983,150,168,67,606,613,750,563,952,730,713,437,220,711,114,243,22,677,21,552,887,943,569,348,829,107,916,225,260,720,981,100,154,998,692,161,500,295,571,492,658,361,788,459,921,134,986,132,80,627,690,732,86,317,372,955,337,540,52,436,549,570,534,50,786,968,235,848,73,238,846,755,922,230,321,985,951,729,439,198,47,973,344,402,715,261,412,221,64,349,885,108,421,633,350,685,987,322,515,262,268,838,37,25,766,173,12,133,718,245,441,938,270,215,471,14,529,535,239,244,76,666,195,475,837,712,942,807,748,216,431,249,813,653,516,752,483,333,742,276,871,959,899,578,501,0,632,536,36,120,609,199,499,931,397,442,971,672,923,826,368,866,375,88,84,719,231,159,445,953,94,302,446,647,169,263,284,40,6,805,79,589,567,961,266,310,258,825,697,374,328,152,341,518,453,849,562,329,432,590,946,974,622,670,417,728,889,283,366,607,648,5,342,164,566,61,373,166,383,795,754,11,423,651,306,654,208,904,435,676,564,116,937,212,473,681,811,90,55,280,839,78,186,657,72,868,878,233,213,381,352,29,526,430,969,861,447,977,81,602,840,190,929,357,773,234,585,413,995,488,26,188,418,314,687,74,956,356,511,780,288,124,845,426,707,847,318,327,706,661,493,409,71,665,66,814,27,770,864,935,881,217,862,693,930,842,457,601,183,927,723,736,700,41,68,779,162,192,717,371,105,293,202,60,737,906,395,454,789,399,710,158,883,646,503,898,117,699,997,915,756,521,384,967,588,596,924,163,691,226,251,913,112,573,894,988,673,551,580,406,305,113,290,362,478,355,689,947,991,45,118,897,419,716,425,708,390,269,911,171,543,902,49,903,264,294,385,784,347,823,111,170,638,642,975,248,386,485,228,131,467,56,448,255,702,339,407,281,787,189,142,835,19,860,798,497,597,667,612,776,960,664,102,912,210,211,313,753,63,33,109,623,433,153,343,867,758,424,477,428,655,556,232,252,508,679,194,42,791,920,205,630,575,744,696,777,775,662,297,452,331,360,530,54,709,274,954,122,401,595,358,675,377,354,746,966,624,289,39,513,890,309,850,901,307,523,256,978,157,830,167,178,873,311,880,982,859,628,964,495,576,582,486,378,410,320,584,945,989,291,874,884,275,722,762,824,242,994,24,854,772,792,460,818,853,767,799,749,165,434,140,643,241,547,804,939,121,336,200,149,545,990,581,625,519,763,796,963,92,172,714,886,870,236,801,514,44,794,93,721,323,600,156,944,659,182,277,458,992,59,101,701,57,46,319,852,334,246,686,218,980,993,761,286,461,443,645,223,863,482,650,599,273,204,77,184,555,635,416,9,802,123,674,278,332,553,119,683,577,759,282,815,391,8,616,537,637,517,539,490,17,83,315,369,136,224,905,605,785,760,738,525,800,506,821,3,155,592,908,502,820,644,415,704,509,180,532,572,128,363,694,487,99,936,181,822,496,308,197,494,554,201,325,472,376,731,438,484,98,892,877,387,641,400,176,51,135,191,404,999,143,932,58,957,30,797,463,531,127,451,227,726,411,678,35,259,145,31,179,144,304,351,141,769,857,740,396,175,359,345,380,652,405,129,394,146,206,844,450,370,639,649,757,925,69,464,130,538,498,603,858,882,527,408,617,340,95,398,879,147,734,97,449,299,237,727,392,965,809,267,219,106,741,703,546,505,524,934,466,62,979,619,682,793,365,214,126,735,841,300,520,608,948,833,958,15,561,559,950,774,250,869,808,177,346,10,335,138,560,876,636,816,698,115,444,668,257,174,196,541,629,504,843,522,75,4,298,480,909,265,640,48,919,316,65,724,806,558,587,949,28,151,896,427,185,855,32,684,301,296,739,544,469,18,626,926,631,810,615,422,851,591,139,548,614,907,790,203,996,23,303,771,312,13,812,550,16,620,287,621,583,593,533,89,491,940,429,918,240,688,187,872,680,586,510,618,765,972,828,271,34,229,542,768,403,470,764,962,976,970,367,834,733,53,70,660,338,865,20,893,745,379,364,110,941,222,783,82,803,85,254,565,279,193,489,148,476,725,87,917,382,705,817,819,888,656,389,91,832,456,663,634,579,209,611,910,743,462,928,594,324,38,598,695,414,326,528,207,420,292,104,604]","arrowleft","","true","0","14","150","1000","[""0009_N1000_K0150_CLIQUE"",""0097_N1000_K0150_NOCLIQUE""]"
"","","","","","audio-keyboard-response","76","128798","0.0-62.0-0.0-1.0","","null","audio_feedback/right/coin01.mp3","null","","","","","0","14","150","1000","[""0009_N1000_K0150_CLIQUE"",""0097_N1000_K0150_NOCLIQUE""]"
"","","","","","canvas-keyboard-response","77","130562","0.0-63.0-0.0-0.0","","813","","arrowleft","[649,514,301,392,798,574,282,70,644,31,249,674,819,601,979,805,871,762,655,941,949,256,107,353,557,178,405,348,341,507,60,193,512,834,275,610,51,784,95,622,597,695,139,729,809,436,792,935,460,976,675,79,590,736,774,638,425,455,912,485,354,889,254,877,670,667,810,505,181,126,111,470,900,787,214,502,352,673,276,503,940,53,316,583,956,857,932,170,382,782,182,171,589,251,414,342,930,939,144,855,934,618,413,710,346,885,50,581,236,102,335,263,357,8,690,850,196,665,378,226,327,707,840,839,553,896,870,867,619,824,925,657,998,844,911,91,308,717,958,982,118,305,829,671,968,205,984,972,978,136,865,320,39,566,841,285,752,626,963,358,44,500,608,732,628,5,133,578,936,269,75,943,953,700,433,742,708,68,27,230,213,804,302,258,93,688,55,735,603,37,791,991,356,324,462,43,642,115,946,530,832,703,390,69,997,432,475,208,948,164,209,745,515,672,361,369,652,726,368,561,738,859,901,429,793,225,172,298,800,84,355,988,112,919,571,744,212,828,235,33,959,108,479,914,388,974,612,260,131,117,467,407,109,360,217,616,528,13,965,523,825,875,594,624,880,279,730,926,174,990,283,971,994,899,120,297,155,441,629,453,495,167,656,995,621,87,318,886,545,683,517,519,81,814,10,245,704,740,960,529,61,666,827,498,766,593,197,702,45,883,58,190,489,582,734,344,506,970,464,399,684,113,239,421,625,488,687,204,973,7,484,90,237,613,535,72,194,951,531,278,456,692,872,758,559,750,569,416,476,848,727,881,62,884,910,598,633,721,757,818,706,296,450,384,152,615,437,198,379,277,96,32,393,524,611,635,183,313,554,913,303,550,21,4,878,843,879,317,694,274,747,389,100,306,64,244,602,816,548,123,374,350,568,567,381,564,763,712,250,605,224,321,366,866,637,80,54,472,952,411,664,35,497,966,686,403,395,813,728,469,387,110,482,176,543,572,756,944,141,291,290,367,86,304,537,677,132,709,838,647,483,448,439,434,89,228,955,917,607,153,431,599,372,888,817,873,325,373,565,676,947,457,764,65,404,780,811,927,402,969,681,815,161,893,541,459,179,242,823,771,267,909,630,41,443,711,262,518,842,201,623,200,769,14,85,563,241,863,679,510,525,713,336,442,570,720,723,191,999,375,160,658,767,185,49,22,743,522,905,252,359,347,573,74,719,794,146,989,536,807,129,983,199,48,295,480,288,577,329,162,163,187,831,513,211,836,223,862,289,716,714,427,916,542,606,363,158,556,2,576,1,326,678,151,837,332,104,820,996,364,826,397,924,328,135,908,722,261,856,34,345,134,106,526,73,446,663,294,310,660,424,853,617,544,121,903,847,410,270,499,420,860,307,66,400,646,386,486,481,340,967,286,753,376,874,36,788,585,103,255,188,154,202,184,311,477,300,63,18,52,148,30,650,396,796,812,281,620,119,986,207,776,494,882,748,454,128,653,314,222,463,902,754,540,852,864,830,586,140,651,604,444,579,938,933,322,409,293,438,640,501,25,977,808,418,929,731,928,99,614,165,992,419,587,741,88,492,868,19,701,11,57,137,981,430,76,203,527,964,786,259,980,351,83,922,143,789,287,173,370,231,16,904,539,799,975,641,511,253,954,125,562,149,521,580,331,142,168,699,466,806,447,309,795,227,210,147,280,471,349,12,985,284,94,648,271,192,654,854,892,122,315,696,627,923,195,266,490,28,705,669,575,643,216,362,551,206,496,234,415,906,785,221,697,790,552,898,772,445,319,897,229,383,749,273,343,797,380,876,38,156,422,907,337,406,465,6,264,26,105,822,29,46,921,77,246,365,130,401,547,846,71,23,759,560,56,775,9,312,150,715,962,166,777,760,145,957,98,588,233,691,781,591,689,478,532,391,175,385,509,724,915,40,423,292,272,801,718,600,961,417,3,950,783,765,220,768,473,487,931,218,493,662,215,555,549,920,746,584,755,538,59,20,773,833,339,408,159,751,377,452,180,299,265,338,659,333,632,394,835,645,440,685,993,861,468,770,821,636,851,461,257,693,169,631,937,895,248,330,101,761,918,42,157,334,737,398,858,428,508,247,558,849,945,739,449,779,238,504,474,595,639,17,592,987,668,371,451,680,412,891,219,887,491,232,47,733,698,803,533,869,240,682,458,0,520,15,546,127,890,82,426,725,97,268,894,609,634,323,116,802,92,138,243,186,534,942,24,177,596,845,67,189,124,114,78,661,778,516,435]","arrowleft","","true","0","15","150","1000","[""0065_N1000_K0150_CLIQUE"",""0034_N1000_K0150_NOCLIQUE""]"
"","","","","","audio-keyboard-response","78","132026","0.0-63.0-0.0-1.0","","null","audio_feedback/right/coin01.mp3","null","","","","","0","15","150","1000","[""0065_N1000_K0150_CLIQUE"",""0034_N1000_K0150_NOCLIQUE""]"
"","","","","","canvas-keyboard-response","79","135843","0.0-64.0-0.0-0.0","","2807",""," ","[883,886,399,904,804,592,157,367,234,413,719,687,219,847,744,758,640,121,571,205,336,132,492,279,431,709,450,283,351,2,360,350,695,990,457,455,193,537,823,549,552,378,47,631,258,895,959,179,304,312,35,982,222,593,702,568,349,728,854,693,210,290,985,112,236,860,774,564,90,162,342,280,102,116,108,33,690,71,520,483,101,828,747,330,522,295,206,701,574,460,684,152,204,419,733,24,866,139,119,803,11,287,957,420,249,144,505,655,117,831,36,609,560,979,31,333,763,40,401,453,536,105,567,556,548,707,925,777,270,277,26,670,963,314,75,409,700,232,284,432,168,298,251,586,384,185,841,888,396,776,86,587,748,324,215,486,267,677,867,485,488,947,721,714,889,986,165,870,608,503,22,220,203,340,688,926,679,832,671,582,228,941,996,444,974,327,303,362,183,313,784,8,790,128,911,994,622,353,408,501,436,98,305,589,995,741,782,125,321,924,223,716,394,521,755,325,973,794,227,509,97,461,598,529,120,337,44,221,833,301,315,16,387,962,647,299,868,84,10,849,498,136,844,551,14,87,156,779,885,603,191,887,668,64,137,269,474,827,937,331,383,163,323,565,23,164,371,978,857,60,542,265,479,180,829,528,825,877,130,644,743,250,404,615,188,810,491,554,764,302,106,538,48,158,176,998,742,147,983,976,802,140,392,762,826,368,665,95,553,122,369,619,150,717,946,961,793,518,855,94,958,581,54,848,843,940,932,62,440,674,259,67,672,664,148,573,447,852,912,765,373,720,244,499,213,1,811,264,724,135,322,612,534,922,123,725,496,357,51,238,813,253,69,390,143,454,173,590,873,89,661,146,754,838,788,254,184,914,517,654,174,561,771,601,286,760,439,484,653,780,421,896,30,680,472,113,738,625,992,968,563,795,636,348,339,107,320,710,820,530,817,851,192,233,933,864,570,555,606,850,840,956,871,544,476,42,557,818,389,775,977,78,566,289,418,908,532,473,667,478,770,641,154,767,614,141,616,729,79,683,115,669,703,151,629,934,318,949,989,240,533,426,917,92,296,12,73,271,800,792,427,836,913,945,235,170,646,395,309,433,960,527,801,194,5,732,403,365,931,328,354,620,819,166,805,114,955,405,543,580,905,393,355,145,335,507,375,613,878,438,175,364,332,66,863,602,898,972,812,980,310,599,274,19,467,970,202,57,63,200,291,241,971,319,425,621,975,907,39,988,623,400,981,386,575,858,595,952,682,769,93,880,558,285,104,594,510,344,217,906,490,539,681,376,862,445,462,643,216,475,523,255,229,55,761,835,965,920,722,550,218,109,649,736,605,361,749,477,648,178,569,293,546,657,547,634,768,127,32,607,797,839,308,882,874,96,919,891,531,936,416,735,459,519,25,799,734,899,231,160,785,969,237,726,806,262,446,182,6,783,942,730,45,902,334,311,133,129,715,630,110,260,172,451,746,37,796,212,964,278,74,306,624,526,627,737,329,604,628,993,723,65,38,739,497,326,798,626,535,706,0,879,596,412,830,43,856,443,379,578,692,884,380,261,658,750,214,585,909,489,951,470,652,13,618,275,772,187,181,246,471,469,466,727,28,656,407,169,637,282,29,382,465,263,824,559,872,816,751,875,584,869,966,138,388,20,876,939,448,423,759,374,346,991,343,252,572,662,435,632,59,190,3,516,61,638,610,142,224,495,300,196,52,859,508,987,429,80,675,650,718,901,938,845,77,617,124,691,865,211,676,611,76,34,918,49,713,997,953,458,243,153,948,276,81,663,50,642,256,385,923,226,83,58,897,752,15,697,704,441,745,230,921,72,406,929,705,686,711,292,268,288,411,272,266,494,199,356,511,56,452,894,70,928,316,91,515,944,46,381,846,341,781,576,338,464,513,545,791,481,207,18,442,583,195,161,694,541,363,297,984,480,177,424,209,685,88,689,99,366,822,712,189,773,27,397,514,815,434,21,506,786,789,482,954,853,842,999,731,372,659,588,935,201,456,837,950,756,359,666,591,257,651,740,892,402,242,171,41,208,821,468,943,159,437,225,893,430,347,134,9,504,370,881,391,635,861,577,696,915,525,118,807,398,890,103,927,294,415,317,678,273,417,500,248,903,155,524,699,53,100,660,809,167,808,900,633,645,708,493,131,352,766,414,502,428,562,186,239,600,82,787,111,673,358,85,757,68,814,449,7,540,512,197,753,930,410,245,281,487,149,422,377,307,778,247,17,698,198,345,967,4,597,916,463,126,579,834,910,639]","arrowleft","","","0","16","133","1000","[""0049_N1000_K0133_CLIQUE"",""0091_N1000_K0133_NOCLIQUE""]"
"","","","","","audio-keyboard-response","80","137426","0.0-64.0-0.0-1.0","","null","audio_feedback/shuffles/shuffle01.mp3","null","","","","","0","16","133","1000","[""0049_N1000_K0133_CLIQUE"",""0091_N1000_K0133_NOCLIQUE""]"
"","","","","","canvas-keyboard-response","81","140977","0.0-64.1-0.1-0.1","","2604","","arrowleft","[43,692,738,48,942,632,609,258,994,829,170,160,41,658,522,378,808,827,120,337,277,382,79,687,164,733,330,223,736,130,594,824,229,545,830,787,773,910,791,308,989,998,681,990,32,18,993,638,340,500,402,200,112,392,54,605,756,38,577,459,507,344,558,635,659,301,754,186,748,376,414,208,876,664,542,151,815,710,639,125,622,859,713,593,591,349,248,93,109,531,139,583,358,222,991,511,665,145,480,101,147,289,947,581,363,396,487,512,244,354,278,954,274,440,526,499,312,560,103,290,951,856,272,604,636,92,546,373,117,587,916,181,68,420,625,310,76,490,967,444,789,214,905,819,875,999,168,597,385,84,443,472,782,913,918,423,451,233,902,941,60,142,412,482,28,153,810,833,509,648,390,146,864,251,316,949,326,457,657,752,978,496,623,960,797,122,66,44,345,667,585,983,157,562,731,725,221,411,920,161,456,372,417,570,477,846,188,105,777,296,73,831,334,677,561,342,837,867,485,90,47,282,643,357,530,689,102,649,626,602,799,126,505,23,27,706,880,852,958,567,463,134,851,984,148,785,776,445,24,502,760,52,393,275,413,997,462,115,802,508,483,543,608,506,929,592,930,39,976,359,847,666,341,98,174,434,698,699,901,988,437,237,268,365,704,114,464,598,538,110,590,778,700,346,728,177,844,116,211,77,21,328,64,269,155,86,569,891,46,906,881,774,206,119,722,806,855,919,818,633,695,424,16,271,124,67,987,356,388,784,368,307,438,553,816,22,478,554,469,439,823,197,764,573,380,319,770,711,981,449,835,878,624,273,571,909,965,276,11,589,267,872,746,488,210,849,243,166,58,568,321,42,384,293,106,163,361,265,781,474,162,584,540,262,169,29,287,303,204,768,661,247,599,452,371,580,123,26,688,516,653,45,611,473,226,615,94,603,175,755,753,650,935,196,897,765,655,937,333,963,955,37,442,735,299,737,35,140,135,132,453,630,944,805,903,193,933,331,696,56,446,921,662,158,192,9,314,379,641,794,327,572,89,670,697,739,618,381,654,421,857,302,904,227,254,215,747,579,12,409,783,441,839,504,191,435,945,492,680,834,640,769,807,535,448,761,203,395,369,714,751,418,972,34,100,347,749,795,672,674,682,772,217,260,894,563,762,374,176,190,673,59,900,401,679,216,953,708,660,825,734,809,943,172,465,877,297,261,911,528,518,240,885,348,973,391,8,858,908,550,178,741,49,693,995,803,294,95,503,386,548,266,686,320,870,252,207,763,235,887,75,322,646,821,165,118,387,195,926,985,771,517,617,675,845,10,886,236,645,419,969,576,329,832,917,450,405,87,471,489,406,201,884,486,525,595,250,80,61,578,533,187,205,716,767,793,338,30,497,295,629,1,536,644,798,539,964,36,723,671,529,950,715,610,389,792,726,701,315,313,141,189,230,612,144,484,871,494,931,601,970,685,780,634,848,669,241,410,407,72,239,179,532,335,149,127,817,255,924,479,619,868,865,461,63,896,55,952,184,53,979,366,198,565,724,586,940,291,107,826,582,968,7,180,932,143,137,351,892,842,397,88,959,513,220,131,729,493,476,428,948,426,432,156,757,288,113,468,306,2,470,889,866,893,404,20,246,656,811,232,97,621,575,3,874,498,71,111,202,325,415,253,796,557,637,977,270,607,213,524,820,652,256,431,534,779,663,812,311,912,559,523,703,555,840,541,460,183,375,971,65,939,317,836,238,245,152,4,259,81,323,224,332,360,14,283,436,447,668,336,398,938,495,758,614,745,814,519,883,717,370,775,936,305,343,491,678,982,96,228,234,416,467,996,647,324,292,520,676,514,219,651,99,962,690,527,249,720,78,481,352,766,853,383,707,281,890,895,740,242,873,466,899,596,684,129,25,628,399,863,199,813,15,860,709,838,804,914,5,613,285,957,133,549,194,843,69,515,300,961,433,33,121,683,556,744,992,318,353,394,727,218,642,551,627,257,284,57,225,882,606,264,850,138,564,475,888,429,721,854,31,6,339,822,790,862,40,403,828,788,975,231,430,309,154,104,600,786,128,91,167,923,620,209,552,501,946,861,408,454,367,928,566,980,616,427,925,521,966,544,298,705,362,355,0,171,212,719,377,750,455,425,108,986,364,70,927,62,51,279,694,934,136,588,718,286,742,458,82,730,159,974,691,17,915,263,400,879,83,759,304,537,869,19,922,800,801,631,185,280,74,841,510,50,907,956,574,350,182,173,743,732,547,898,702,712,85,13,150,422]","arrowleft","","true","0","16","133","1000","[""0049_N1000_K0133_CLIQUE"",""0091_N1000_K0133_NOCLIQUE""]"
"","","","","","audio-keyboard-response","82","142451","0.0-64.1-0.1-1.1","","null","audio_feedback/right/coin01.mp3","null","","","","","0","16","133","1000","[""0049_N1000_K0133_CLIQUE"",""0091_N1000_K0133_NOCLIQUE""]"
"","","","","","canvas-keyboard-response","83","146820","0.0-65.0-0.0-0.0","","3420",""," ","[645,329,400,317,678,594,82,143,307,716,185,870,538,573,930,284,735,378,399,466,827,581,804,319,397,95,346,706,386,731,316,413,87,63,330,699,192,430,908,308,574,613,733,194,321,772,365,256,776,231,266,932,620,740,554,657,460,959,293,493,636,186,647,961,863,48,164,528,271,783,125,689,423,486,505,367,968,99,606,806,182,978,833,686,325,842,638,999,277,849,203,871,98,590,109,717,280,971,211,652,898,511,457,59,36,745,115,775,349,724,563,104,155,872,69,649,923,884,787,975,68,389,778,944,239,282,865,547,138,838,583,392,969,47,906,195,697,952,25,149,814,996,189,39,38,585,288,137,683,451,627,94,490,228,525,556,255,552,187,558,539,615,829,560,848,738,756,653,887,467,708,436,651,633,856,369,285,673,72,859,990,832,333,844,564,727,438,762,71,626,458,851,680,701,807,797,20,359,535,353,373,103,928,46,233,509,247,737,379,526,428,753,880,825,265,188,830,477,383,939,364,363,134,711,246,660,644,244,468,322,891,937,892,903,70,667,600,4,270,406,391,777,163,862,929,942,946,130,822,743,306,646,97,746,763,234,440,445,323,543,140,537,784,260,987,878,145,180,522,472,444,916,882,802,755,602,530,2,913,764,213,427,418,876,587,495,640,309,793,864,988,339,229,354,360,403,356,283,769,313,715,275,634,682,800,146,770,416,199,677,120,972,791,768,92,877,741,273,312,16,450,402,257,267,292,604,712,919,303,973,695,524,734,417,393,625,548,341,355,991,66,869,795,912,74,531,21,566,65,655,875,508,157,408,202,41,176,61,641,546,197,455,10,492,598,805,193,976,665,207,628,225,387,710,274,642,664,709,172,502,599,671,722,55,843,516,951,826,507,748,142,782,704,258,388,900,700,945,836,496,51,920,204,230,874,419,639,542,494,85,866,227,500,845,582,121,867,348,834,886,747,523,497,796,956,118,254,190,720,977,947,589,935,181,623,984,957,483,958,294,487,545,813,499,617,461,111,268,670,175,49,471,512,248,162,555,572,899,237,272,568,314,565,789,210,597,148,681,278,297,831,474,23,904,144,28,948,529,576,411,156,217,251,910,484,358,336,941,998,881,840,301,108,580,412,15,650,153,774,78,821,901,624,925,34,513,26,786,432,953,648,56,601,557,744,766,799,749,567,954,857,841,173,974,441,757,693,183,907,107,684,603,250,654,520,171,289,372,119,93,669,837,299,184,429,608,394,853,67,792,643,29,380,123,504,18,897,588,434,315,425,76,376,409,253,117,675,767,751,371,619,798,439,883,663,200,129,80,196,407,966,133,914,995,931,687,124,616,811,854,592,692,685,216,828,433,332,835,462,422,885,618,498,245,414,305,347,860,812,178,679,579,629,208,396,269,135,533,343,518,350,44,902,122,584,614,101,551,166,114,586,809,426,448,106,981,765,437,785,577,290,463,331,13,212,8,96,924,435,398,50,174,238,917,879,338,889,808,612,453,983,404,788,761,344,223,986,510,465,658,707,575,236,456,989,128,593,219,300,110,90,42,7,40,631,27,385,635,553,361,979,242,52,666,562,33,222,672,936,781,475,335,540,30,151,702,752,985,86,491,918,53,997,19,9,302,485,662,357,698,464,165,773,170,855,262,637,596,519,758,739,824,221,962,595,839,965,177,470,139,218,160,304,295,169,147,561,905,342,801,311,220,688,405,718,723,191,54,732,721,337,452,320,35,77,100,64,443,967,694,656,14,794,779,81,926,79,291,351,994,57,232,116,328,476,725,852,963,823,501,861,729,873,668,89,950,279,334,909,152,62,517,154,83,75,374,964,215,421,276,296,159,868,375,736,819,993,366,489,205,940,750,381,611,318,713,534,136,73,424,214,980,482,127,610,536,161,622,927,754,447,632,105,578,201,691,249,45,895,345,893,515,714,559,703,816,469,591,3,60,281,570,442,820,168,31,550,327,479,209,661,532,771,5,742,167,933,726,32,730,609,91,6,960,370,521,113,11,544,58,446,992,340,915,179,850,480,298,102,858,240,1,810,659,760,803,241,605,198,943,420,224,818,158,488,415,395,888,310,235,815,24,846,226,676,384,263,949,112,817,728,896,88,719,43,473,938,759,527,17,847,674,431,12,607,690,264,705,287,390,382,368,506,569,141,0,22,252,126,454,503,970,549,362,132,982,449,630,401,696,514,541,131,780,571,377,259,459,481,206,790,326,37,955,410,352,261,243,150,84,621,324,934,890,911,478,921,894,922,286]","arrowleft","","","0","17","133","1000","[""0084_N1000_K0133_CLIQUE"",""0019_N1000_K0133_NOCLIQUE""]"
"","","","","","audio-keyboard-response","84","148387","0.0-65.0-0.0-1.0","","null","audio_feedback/shuffles/shuffle01.mp3","null","","","","","0","17","133","1000","[""0084_N1000_K0133_CLIQUE"",""0019_N1000_K0133_NOCLIQUE""]"
"","","","","","canvas-keyboard-response","85","150667","0.0-65.1-0.1-0.1","","1319","","arrowleft","[514,497,367,391,178,523,871,162,602,386,185,434,620,427,356,564,39,911,123,444,291,888,146,428,714,713,561,601,305,350,336,195,231,662,797,452,128,259,115,652,553,986,37,209,232,519,787,647,599,100,793,193,21,878,57,614,559,942,106,935,310,92,826,799,275,135,582,630,875,273,61,525,48,536,687,484,821,884,284,431,678,605,141,302,297,402,661,775,288,568,807,74,976,363,215,161,137,144,67,307,909,483,131,380,968,750,172,148,18,861,955,822,52,856,179,918,429,473,801,982,820,383,766,708,664,728,321,365,757,32,941,85,733,802,109,292,772,752,912,327,43,355,124,396,891,329,247,246,140,182,692,445,458,19,938,558,339,698,465,20,637,609,967,352,617,924,202,435,632,619,236,3,606,56,604,825,981,142,301,907,443,711,621,342,324,638,196,334,432,641,985,139,768,15,679,894,11,160,590,244,46,16,872,122,237,811,293,753,928,119,742,89,710,206,954,625,626,33,926,177,616,615,319,701,879,91,73,13,64,931,157,845,323,463,84,613,853,80,351,114,346,823,45,868,645,901,70,633,194,643,703,827,640,371,249,103,612,765,734,684,673,575,628,704,883,818,105,117,442,53,98,501,24,289,159,294,38,726,370,951,947,864,494,565,906,622,988,736,548,979,965,165,17,256,660,707,668,715,493,651,111,860,309,754,746,788,855,546,471,143,425,587,110,456,537,737,705,920,474,503,436,99,266,418,480,642,217,7,82,810,824,36,102,831,5,482,90,271,805,974,454,253,992,419,865,591,145,22,504,892,233,453,583,723,118,657,669,315,529,277,394,896,859,603,593,538,1,895,973,840,129,219,190,885,779,850,914,552,101,618,994,515,125,547,724,902,722,589,212,347,983,55,808,577,72,192,972,594,833,980,748,592,138,795,743,280,450,384,116,23,440,735,791,390,682,584,509,889,328,663,832,447,446,54,550,528,130,535,956,316,0,899,873,767,957,322,407,607,712,717,272,571,540,904,359,677,199,890,387,624,862,886,665,803,925,916,836,234,169,513,863,551,961,364,858,360,729,512,35,936,171,31,481,573,656,574,771,542,121,777,502,79,989,706,898,790,578,220,467,358,176,498,813,469,421,586,492,555,854,631,66,570,557,393,709,170,223,330,163,250,230,654,303,937,567,218,659,658,786,672,410,225,930,188,780,963,325,378,675,181,999,8,531,2,837,683,636,747,851,423,990,581,240,917,392,598,475,397,819,282,934,311,437,518,610,180,150,441,760,439,41,411,372,554,164,597,120,516,843,817,389,958,690,326,422,276,814,846,75,653,738,30,264,65,304,915,208,312,133,42,694,844,718,186,809,229,971,198,97,671,929,495,922,210,749,153,569,784,964,680,693,804,762,510,12,522,563,511,460,611,314,213,893,877,222,867,544,466,413,156,944,49,375,207,403,331,60,261,486,882,132,379,852,798,579,689,785,251,6,667,281,368,534,155,562,395,255,430,763,344,175,298,62,623,507,987,952,921,769,296,96,404,686,401,913,782,113,685,51,635,320,716,317,201,532,524,245,649,476,939,857,508,691,634,420,332,655,781,258,308,829,205,349,740,828,40,489,543,269,44,112,416,695,897,279,28,200,960,932,76,216,681,382,838,214,341,373,905,47,414,530,776,354,869,566,783,670,962,499,725,77,648,984,978,166,377,107,702,376,338,457,778,345,197,340,496,505,794,337,881,608,183,147,730,761,923,600,438,241,674,366,585,71,950,267,68,520,333,335,866,576,10,399,933,644,69,417,306,313,400,426,477,221,385,464,521,262,834,204,252,487,451,991,104,479,943,731,59,490,485,727,500,830,50,849,94,816,774,287,388,815,63,835,449,461,506,154,700,721,184,433,478,58,265,415,343,996,751,919,448,151,468,533,81,242,353,134,639,152,806,412,83,997,770,286,910,348,136,424,285,357,168,405,274,741,87,527,187,541,998,580,847,29,759,900,556,953,243,300,549,789,903,720,126,260,927,408,699,257,406,362,887,572,796,149,34,650,78,295,86,697,773,158,398,764,26,595,800,203,488,719,842,361,876,977,696,174,226,108,278,263,545,995,744,25,224,970,191,880,93,239,88,9,14,27,374,318,290,732,940,381,189,841,560,470,526,127,254,966,409,975,238,739,235,946,666,870,491,227,792,874,758,993,848,646,459,283,369,627,299,173,596,472,462,745,959,539,812,629,676,455,211,167,908,248,756,4,839,270,755,949,268,588,688,969,95,228,948,945,517]","arrowleft","","true","0","17","133","1000","[""0084_N1000_K0133_CLIQUE"",""0019_N1000_K0133_NOCLIQUE""]"
"","","","","","audio-keyboard-response","86","152134","0.0-65.1-0.1-1.1","","null","audio_feedback/right/coin01.mp3","null","","","","","0","17","133","1000","[""0084_N1000_K0133_CLIQUE"",""0019_N1000_K0133_NOCLIQUE""]"
