"success","timeout","failed_images","failed_audio","failed_video","trial_type","trial_index","time_elapsed","internal_node_id","view_history","rt","stimulus","response","nodes_order","correct_response","graphs_couple","accuracy","block_index","presentation_index","clique_size","graph_size","graphs_names"
"true","false","[]","[]","[]","preload","0","103","0.0-0.0","","","","","","","","","","","","",""
"","","","","","pavlovia","1","694","0.0-1.0","","","","","","","","","","","","",""
"","","","","","instructions","2","7443","0.0-2.0","[{""page_index"":0,""viewing_time"":2763},{""page_index"":1,""viewing_time"":3981}]","6744","","","","","","","","","","",""
"true","false","[]","[]","[]","preload","3","8270","0.0-3.0","","","","","","","","","","","","",""
"","","","","","instructions","4","19327","0.0-4.0","[{""page_index"":0,""viewing_time"":1237},{""page_index"":1,""viewing_time"":550},{""page_index"":2,""viewing_time"":363},{""page_index"":3,""viewing_time"":493},{""page_index"":4,""viewing_time"":179},{""page_index"":5,""viewing_time"":218},{""page_index"":6,""viewing_time"":159},{""page_index"":7,""viewing_time"":177},{""page_index"":8,""viewing_time"":196},{""page_index"":9,""viewing_time"":166},{""page_index"":10,""viewing_time"":136},{""page_index"":11,""viewing_time"":152},{""page_index"":12,""viewing_time"":188},{""page_index"":13,""viewing_time"":126},{""page_index"":14,""viewing_time"":167},{""page_index"":15,""viewing_time"":166},{""page_index"":16,""viewing_time"":161},{""page_index"":17,""viewing_time"":191},{""page_index"":18,""viewing_time"":141},{""page_index"":19,""viewing_time"":180},{""page_index"":20,""viewing_time"":183},{""page_index"":21,""viewing_time"":153},{""page_index"":22,""viewing_time"":166},{""page_index"":23,""viewing_time"":200},{""page_index"":24,""viewing_time"":181},{""page_index"":25,""viewing_time"":137},{""page_index"":26,""viewing_time"":186},{""page_index"":27,""viewing_time"":166},{""page_index"":28,""viewing_time"":184},{""page_index"":29,""viewing_time"":147},{""page_index"":30,""viewing_time"":198},{""page_index"":31,""viewing_time"":176},{""page_index"":32,""viewing_time"":142},{""page_index"":33,""viewing_time"":174},{""page_index"":34,""viewing_time"":202},{""page_index"":35,""viewing_time"":149},{""page_index"":36,""viewing_time"":214},{""page_index"":37,""viewing_time"":139},{""page_index"":38,""viewing_time"":182},{""page_index"":39,""viewing_time"":196},{""page_index"":40,""viewing_time"":150},{""page_index"":41,""viewing_time"":220},{""page_index"":42,""viewing_time"":213},{""page_index"":43,""viewing_time"":177},{""page_index"":44,""viewing_time"":202},{""page_index"":45,""viewing_time"":167},{""page_index"":46,""viewing_time"":176},{""page_index"":47,""viewing_time"":153},{""page_index"":48,""viewing_time"":187},{""page_index"":49,""viewing_time"":172},{""page_index"":50,""viewing_time"":198},{""page_index"":51,""viewing_time"":222}]","11057","","","","","","","","","","",""
"","","","","","instructions","5","21103","0.0-5.0","[{""page_index"":0,""viewing_time"":1775}]","1775","","","","","","","","","","",""
"true","false","[]","[]","[]","preload","6","22037","0.0-6.0","","","","","","","","","","","","",""
"","","","","","image-keyboard-response","7","23981","0.0-7.0","","1943","tutorial/task_familiarization_images/part 1/01_N160_K90_cliqueRight_question1.PNG"," ","","","","","","","","",""
"","","","","","image-keyboard-response","8","24381","0.0-8.0","","399","tutorial/task_familiarization_images/part 1/02_N160_K90_cliqueRight_question2.PNG"," ","","","","","","","","",""
"","","","","","image-keyboard-response","9","26038","0.0-9.0","","1656","tutorial/task_familiarization_images/part 1/03_N160_K90_cliqueRight_question3.PNG","arrowright","","","","","","","","",""
"","","","","","image-keyboard-response","10","27206","0.0-10.0","","1165","tutorial/task_familiarization_images/part 1/04_N160_K90_cliqueRight_solution.PNG"," ","","","","","","","","",""
"","","","","","image-keyboard-response","11","27674","0.0-11.0","","466","tutorial/task_familiarization_images/part 1/05_N160_K65_cliqueRight_question1.PNG"," ","","","","","","","","",""
"","","","","","image-keyboard-response","12","27886","0.0-12.0","","210","tutorial/task_familiarization_images/part 1/06_N160_K65_cliqueRight_question2.PNG"," ","","","","","","","","",""
"","","","","","image-keyboard-response","13","29178","0.0-13.0","","1289","tutorial/task_familiarization_images/part 1/07_N160_K65_cliqueRight_question3.PNG","arrowright","","","","","","","","",""
"","","","","","image-keyboard-response","14","29896","0.0-14.0","","716","tutorial/task_familiarization_images/part 1/08_N160_K65_cliqueRight_solution.PNG"," ","","","","","","","","",""
"","","","","","image-keyboard-response","15","30116","0.0-15.0","","219","tutorial/task_familiarization_images/part 1/09_N160_K50_cliqueLeft_question1.PNG"," ","","","","","","","","",""
"","","","","","image-keyboard-response","16","30278","0.0-16.0","","159","tutorial/task_familiarization_images/part 1/10_N160_K50_cliqueLeft_question2.PNG"," ","","","","","","","","",""
"","","","","","image-keyboard-response","17","31246","0.0-17.0","","968","tutorial/task_familiarization_images/part 1/11_N160_K50_cliqueLeft_question3.PNG","arrowleft","","","","","","","","",""
"","","","","","image-keyboard-response","18","31737","0.0-18.0","","489","tutorial/task_familiarization_images/part 1/12_N160_K50_cliqueLeft_solution.PNG"," ","","","","","","","","",""
"","","","","","image-keyboard-response","19","31903","0.0-19.0","","165","tutorial/task_familiarization_images/part 1/13_N160_K80_cliqueLeft_question1.PNG"," ","","","","","","","","",""
"","","","","","image-keyboard-response","20","32072","0.0-20.0","","168","tutorial/task_familiarization_images/part 1/14_N160_K80_cliqueLeft_question2.PNG"," ","","","","","","","","",""
"","","","","","image-keyboard-response","21","33046","0.0-21.0","","973","tutorial/task_familiarization_images/part 1/15_N160_K80_cliqueLeft_question3.PNG","arrowleft","","","","","","","","",""
"","","","","","image-keyboard-response","22","33440","0.0-22.0","","392","tutorial/task_familiarization_images/part 1/16_N160_K80_cliqueLeft_solution.PNG"," ","","","","","","","","",""
"","","","","","image-keyboard-response","23","33589","0.0-23.0","","147","tutorial/task_familiarization_images/part 1/17_N160_K40_cliqueRight_question1.PNG"," ","","","","","","","","",""
"","","","","","image-keyboard-response","24","33754","0.0-24.0","","163","tutorial/task_familiarization_images/part 1/18_N160_K40_cliqueRight_question2.PNG"," ","","","","","","","","",""
"","","","","","image-keyboard-response","25","37933","0.0-25.0","","4177","tutorial/task_familiarization_images/part 1/19_N160_K40_cliqueRight_question3.PNG","arrowright","","","","","","","","",""
"","","","","","image-keyboard-response","26","38904","0.0-26.0","","970","tutorial/task_familiarization_images/part 1/20_N160_K40_cliqueRight_solution.PNG"," ","","","","","","","","",""
"","","","","","image-keyboard-response","27","39097","0.0-27.0","","191","tutorial/task_familiarization_images/part 1/21_N160_K70_cliqueLeft_question1.PNG"," ","","","","","","","","",""
"","","","","","image-keyboard-response","28","39258","0.0-28.0","","160","tutorial/task_familiarization_images/part 1/22_N160_K70_cliqueLeft_question2.PNG"," ","","","","","","","","",""
"","","","","","image-keyboard-response","29","40247","0.0-29.0","","988","tutorial/task_familiarization_images/part 1/23_N160_K70_cliqueLeft_question3.PNG","arrowleft","","","","","","","","",""
"","","","","","image-keyboard-response","30","40910","0.0-30.0","","661","tutorial/task_familiarization_images/part 1/24_N160_K70_cliqueLeft_solution.PNG"," ","","","","","","","","",""
"true","false","[]","[]","[]","preload","31","41561","0.0-31.0","","","","","","","","","","","","",""
"","","","","","image-keyboard-response","32","44002","0.0-32.0","","2440","tutorial/task_familiarization_images/part 2/01_160_80_cliqueLeft_withFeedback_1.PNG"," ","","","","","","","","",""
"","","","","","image-keyboard-response","33","44166","0.0-33.0","","158","tutorial/task_familiarization_images/part 2/02_160_80_cliqueLeft_withFeedback_1.PNG"," ","","","","","","","","",""
"","","","","","image-keyboard-response","34","45061","0.0-34.0","","893","tutorial/task_familiarization_images/part 2/03_160_80_cliqueLeft_withFeedback_3.PNG","arrowleft","","","","","","","","",""
"","","","","","image-keyboard-response","35","45878","0.0-35.0","","815","tutorial/task_familiarization_images/part 2/04_160_80_cliqueLeft_withFeedback_correct.PNG"," ","","","","","","","","",""
"","","","","","image-keyboard-response","36","46047","0.0-36.0","","167","tutorial/task_familiarization_images/part 2/05_160_55_cliqueRight_withFeedback_1.PNG"," ","","","","","","","","",""
"","","","","","image-keyboard-response","37","46231","0.0-37.0","","181","tutorial/task_familiarization_images/part 2/06_160_55_cliqueRight_withFeedback_2.PNG"," ","","","","","","","","",""
"","","","","","image-keyboard-response","38","47239","0.0-38.0","","1007","tutorial/task_familiarization_images/part 2/07_160_55_cliqueRight_withFeedback_3.PNG","arrowright","","","","","","","","",""
"","","","","","image-keyboard-response","39","47868","0.0-39.0","","629","tutorial/task_familiarization_images/part 2/08_160_55_cliqueRight_withFeedback_correct.PNG"," ","","","","","","","","",""
"","","","","","image-keyboard-response","40","48031","0.0-40.0","","162","tutorial/task_familiarization_images/part 2/09_160_70_cliqueLeft_withFeedback_1.PNG"," ","","","","","","","","",""
"","","","","","image-keyboard-response","41","48192","0.0-41.0","","158","tutorial/task_familiarization_images/part 2/10_160_70_cliqueLeft_withFeedback_2.PNG"," ","","","","","","","","",""
"","","","","","image-keyboard-response","42","49109","0.0-42.0","","916","tutorial/task_familiarization_images/part 2/11_160_70_cliqueLeft_withFeedback_3.PNG","arrowleft","","","","","","","","",""
"","","","","","image-keyboard-response","43","49552","0.0-43.0","","439","tutorial/task_familiarization_images/part 2/12_160_70_cliqueLeft_withFeedback_correct.PNG"," ","","","","","","","","",""
"","","","","","survey-html-form","44","56642","0.0-44.0","","7088","","{""gender"":""male"",""age"":""23""}","","","","","","","","",""
"","","","","","instructions","45","57881","0.0-45.0","[{""page_index"":0,""viewing_time"":1237}]","1238","","","","","","","","","","",""
"true","","","","","fullscreen","46","61946","0.0-47.0","","","","","","","","","","","","",""
"","","","","","canvas-keyboard-response","47","64883","0.0-48.0-0.0-0.0","","1666","","arrowleft","[221,434,164,890,261,652,631,352,438,637,38,669,18,395,447,826,913,628,63,110,917,113,762,603,522,624,516,900,570,598,321,787,17,464,626,697,423,281,839,126,190,34,465,496,726,932,13,44,648,500,725,502,77,673,36,383,102,49,442,720,118,243,318,685,605,864,569,827,89,552,625,462,376,831,388,891,893,950,640,700,558,315,368,306,371,207,706,822,814,83,789,901,688,746,233,460,529,266,931,748,7,670,64,250,470,995,12,153,807,322,119,513,879,150,436,509,959,912,103,574,584,783,495,772,239,430,205,627,449,329,592,930,285,795,721,750,223,958,892,991,724,60,692,743,551,372,363,653,327,997,612,156,157,696,988,145,426,633,192,713,361,473,560,26,863,166,328,865,707,365,885,794,528,291,497,811,845,57,439,909,690,487,46,961,88,960,469,868,968,224,55,494,346,894,355,504,699,235,619,660,367,833,534,939,96,219,231,11,198,779,135,704,544,32,116,357,977,693,309,877,617,553,732,896,181,478,147,559,585,476,195,95,664,384,765,803,969,189,282,30,140,99,441,199,437,107,421,842,597,242,993,643,134,740,941,920,903,142,914,485,481,871,767,533,883,580,204,973,416,298,651,638,841,246,774,800,483,709,161,402,523,565,169,358,67,870,907,42,679,581,686,433,620,616,702,817,609,629,881,97,278,618,183,353,869,543,661,549,272,978,414,132,387,339,503,518,562,682,567,255,262,554,277,604,698,248,989,401,647,771,613,448,876,129,305,185,120,610,742,689,389,687,719,177,265,856,115,336,274,601,68,486,295,245,606,797,479,474,133,112,457,895,824,270,976,550,200,257,450,466,484,980,271,215,440,944,446,171,761,809,708,174,599,730,641,333,260,141,249,715,370,162,59,571,3,241,338,727,287,186,911,798,121,935,420,769,589,867,193,409,760,472,382,777,196,313,802,940,915,804,813,541,232,234,251,294,695,788,33,926,499,745,342,377,308,5,302,263,561,575,942,731,253,943,630,636,356,297,737,521,373,755,131,987,85,790,158,399,273,381,230,928,152,985,374,340,191,209,348,850,66,319,92,644,206,458,222,128,539,683,165,451,9,815,791,444,217,665,155,758,1,139,880,525,526,904,91,770,320,81,39,303,925,268,830,137,821,213,461,972,498,170,31,20,71,825,701,109,424,738,849,228,859,403,507,37,596,212,0,590,602,93,311,832,519,676,716,124,886,394,390,517,182,834,208,454,888,555,711,160,577,324,334,582,583,256,691,967,878,432,924,179,684,568,642,337,184,848,23,480,778,514,226,994,175,955,728,844,872,965,747,138,300,143,108,712,566,6,667,286,952,576,22,259,280,347,54,283,910,51,829,535,252,276,10,475,854,759,763,364,52,72,379,744,922,986,201,739,656,194,527,862,122,398,857,780,957,938,127,717,375,600,100,463,400,393,838,40,493,982,111,547,386,310,123,908,882,861,25,775,87,773,27,975,258,304,176,946,860,75,722,970,392,445,984,236,823,801,586,443,799,820,906,317,48,360,632,835,756,86,657,385,61,510,4,330,672,622,675,90,919,639,104,764,488,335,459,966,130,733,905,491,663,163,56,923,405,927,678,203,694,80,615,557,452,812,953,14,369,671,172,634,828,117,45,537,736,666,425,703,614,611,884,793,563,279,292,114,468,210,785,806,35,718,524,548,766,105,197,899,579,951,810,366,649,572,412,70,819,288,536,607,846,723,847,410,929,990,936,654,753,407,431,492,531,73,284,275,225,41,50,419,587,467,106,705,350,69,159,754,326,220,214,345,293,593,837,515,918,76,996,934,148,396,594,344,734,84,411,530,391,187,343,218,540,858,58,428,889,427,749,999,408,542,332,29,874,82,608,623,125,781,962,65,784,992,354,983,816,2,974,674,477,836,240,508,301,843,902,456,645,511,573,471,229,851,19,818,79,937,43,710,8,512,595,964,417,216,316,948,349,659,362,101,149,621,853,24,532,269,435,490,144,768,62,875,264,752,290,741,180,887,956,520,954,53,963,422,714,404,413,331,351,211,662,506,947,751,489,415,154,796,646,146,267,314,323,406,898,28,786,378,897,916,805,681,564,556,299,136,244,237,455,655,307,178,173,578,501,418,933,668,979,757,776,429,74,729,545,289,15,168,921,188,680,866,325,254,945,981,782,151,397,482,588,808,238,591,792,341,247,658,167,312,840,359,635,971,735,998,380,21,546,202,677,98,855,78,47,873,16,453,538,296,94,227,505,650,949,852]","arrowleft","","true","0","0","300","1000","[""0014_N1000_K0300_CLIQUE"",""0098_N1000_K0300_NOCLIQUE""]"
"","","","","","audio-keyboard-response","48","66664","0.0-48.0-0.0-1.0","","null","audio_feedback/right/coin01.mp3","null","","","","","0","0","300","1000","[""0014_N1000_K0300_CLIQUE"",""0098_N1000_K0300_NOCLIQUE""]"
"","","","","","canvas-keyboard-response","49","69237","0.0-49.0-0.0-0.0","","1301","","arrowright","[384,19,272,538,802,120,340,700,933,948,707,222,335,985,56,999,785,629,139,728,931,292,94,146,119,699,579,343,624,739,371,509,912,47,790,799,935,971,733,920,103,354,806,730,583,679,844,732,66,20,770,129,299,496,778,941,283,918,207,300,460,486,611,152,374,663,416,379,302,316,593,156,192,421,69,307,927,656,978,468,451,642,218,729,82,424,216,804,28,638,161,253,223,332,526,604,38,793,7,368,938,143,238,705,500,964,234,62,488,788,838,986,772,591,260,873,58,556,412,818,404,973,175,817,902,805,65,399,894,711,534,199,866,660,533,34,970,157,994,457,551,37,355,566,420,89,230,645,630,559,450,141,589,819,422,312,815,628,637,741,701,282,378,761,22,259,13,723,437,633,235,544,840,189,100,967,441,773,644,344,147,726,885,635,961,890,348,683,510,588,944,387,988,578,381,592,567,682,992,183,465,787,915,117,575,193,848,814,478,523,868,391,396,896,950,405,949,870,599,124,541,694,410,759,959,327,843,951,924,494,751,237,595,829,508,854,46,758,54,418,397,30,442,598,626,934,60,10,172,11,822,743,400,453,913,36,112,916,160,926,797,561,317,545,4,472,342,427,527,79,904,577,735,921,425,737,99,113,879,755,127,92,550,852,202,346,293,704,403,358,989,917,86,372,448,621,718,73,473,606,996,373,226,850,246,886,309,835,525,531,269,874,932,145,224,280,502,746,377,106,783,942,203,426,791,601,321,324,910,49,194,889,492,833,32,475,123,516,70,634,304,674,162,135,438,31,110,900,748,168,485,301,897,771,750,836,524,174,164,431,389,813,762,17,535,528,63,239,914,957,326,740,250,467,669,585,781,205,858,419,322,498,211,428,863,254,744,357,483,875,308,360,555,163,339,271,752,657,243,383,394,386,734,12,447,557,392,716,376,774,229,154,878,411,423,955,281,872,184,851,646,370,965,521,721,173,351,352,901,722,898,493,278,433,980,513,709,956,505,590,149,252,776,337,860,903,582,647,824,221,130,625,808,393,520,847,853,673,600,305,297,529,514,821,487,446,816,185,445,415,731,702,643,798,837,42,449,969,275,140,749,134,570,206,148,363,862,131,747,247,474,96,891,675,90,564,33,923,653,88,93,717,736,990,255,689,180,982,792,9,257,48,21,365,929,1,241,807,458,44,121,960,560,364,41,53,0,888,777,195,562,618,662,823,803,905,616,2,159,244,323,181,587,655,768,274,501,361,769,849,191,753,690,536,402,543,118,812,703,288,667,298,469,286,482,947,572,539,826,273,697,212,52,456,714,266,6,406,155,659,78,414,102,268,331,775,720,627,499,958,857,74,571,594,549,77,430,15,976,876,834,471,333,83,285,712,23,24,987,315,61,522,678,178,262,574,228,279,928,176,479,440,607,150,476,640,107,87,227,265,651,409,620,839,780,171,165,865,661,138,503,231,359,380,466,713,190,766,899,71,925,14,236,125,945,101,256,345,64,612,974,132,116,26,613,652,609,605,455,919,745,867,984,511,217,3,395,251,325,29,407,936,856,665,548,85,158,846,765,277,558,684,197,215,263,602,353,680,597,977,81,631,940,696,330,692,167,50,911,401,489,670,795,319,664,576,708,443,810,649,908,827,991,946,72,80,413,242,105,715,658,287,213,632,480,97,907,725,677,39,779,318,398,608,177,512,968,859,270,289,43,686,276,452,91,328,484,794,310,108,436,240,887,695,724,477,617,462,943,128,40,334,871,114,796,760,881,884,385,388,981,687,710,5,764,296,76,320,25,997,623,490,497,435,825,232,104,210,341,691,179,429,390,18,681,16,126,347,290,209,27,350,170,45,137,586,983,375,756,245,461,937,648,650,939,366,995,610,565,314,382,877,963,998,668,861,434,115,264,98,225,596,842,930,55,882,186,893,532,136,952,580,763,294,369,417,169,182,84,144,519,654,698,727,515,568,864,51,909,111,188,603,187,517,267,249,35,782,220,841,464,671,530,444,784,439,688,767,820,719,869,757,122,546,367,408,537,706,906,693,845,615,329,552,622,547,470,831,291,311,142,563,362,962,828,166,922,67,738,742,676,459,303,636,495,972,261,573,463,518,895,975,349,569,800,966,954,200,883,284,979,672,68,542,892,338,754,553,953,201,208,59,153,641,57,219,685,306,666,133,855,639,619,151,258,481,581,491,233,540,786,584,789,248,204,809,811,198,880,454,830,214,196,504,993,801,432,507,75,506,554,832,313,356,295,614,336,95,109,8]","arrowright","","true","0","1","300","1000","[""0092_N1000_K0300_NOCLIQUE"",""0037_N1000_K0300_CLIQUE""]"
"","","","","","audio-keyboard-response","50","70226","0.0-49.0-0.0-1.0","","null","audio_feedback/right/coin01.mp3","null","","","","","0","1","300","1000","[""0092_N1000_K0300_NOCLIQUE"",""0037_N1000_K0300_CLIQUE""]"
"","","","","","canvas-keyboard-response","51","72327","0.0-50.0-0.0-0.0","","848","","arrowleft","[563,283,388,631,152,519,129,892,637,231,635,793,704,558,888,147,971,59,484,895,972,891,933,416,221,632,653,290,237,80,591,517,674,351,571,541,106,35,432,889,760,363,348,156,26,233,86,576,994,187,220,544,412,436,538,711,623,224,949,170,798,716,251,553,160,498,926,659,839,848,796,612,773,336,133,804,778,522,426,818,671,178,287,470,227,829,485,782,33,784,853,613,134,99,801,67,326,761,15,141,705,293,759,535,211,974,720,786,948,745,758,589,514,630,207,108,975,969,380,715,537,565,656,442,564,539,410,3,314,719,963,264,111,32,421,662,7,205,355,495,709,592,419,400,142,664,679,557,809,525,590,927,413,396,431,849,766,175,812,921,845,281,504,0,520,800,364,993,934,886,272,461,373,692,731,184,945,179,229,865,9,169,482,627,448,121,324,420,831,303,885,521,834,428,489,322,606,146,939,912,391,39,626,753,72,604,446,743,240,992,195,253,832,998,73,701,56,566,810,335,456,523,750,406,751,268,304,366,524,728,213,559,475,587,11,474,189,737,430,986,46,697,139,398,459,365,450,486,752,868,641,479,580,279,837,527,190,529,439,601,540,560,928,617,988,399,127,359,931,318,654,241,802,827,911,777,624,371,457,329,376,112,910,965,468,787,968,749,634,91,36,462,51,585,638,795,289,657,806,115,150,230,370,415,799,353,381,677,703,734,890,49,54,101,102,914,64,288,188,789,666,690,196,877,905,332,161,879,633,449,23,582,979,34,344,372,622,938,401,265,427,282,901,292,414,471,943,218,262,452,394,360,136,96,164,75,846,487,277,328,996,214,857,838,357,382,528,997,855,89,162,434,567,444,941,210,323,820,603,781,872,384,440,770,257,850,57,721,967,409,453,124,598,596,60,871,502,990,19,209,680,177,358,893,552,339,271,402,20,584,618,688,966,79,825,469,956,30,841,377,62,256,568,667,896,267,374,935,424,236,508,776,173,186,78,940,311,500,925,140,45,995,856,757,235,792,673,37,858,274,405,644,299,481,225,14,82,123,663,239,494,756,842,794,712,77,984,561,74,47,583,119,76,181,238,574,577,830,243,95,981,735,219,438,947,368,463,40,562,404,300,586,573,226,670,744,107,4,962,330,545,393,954,44,50,275,340,959,194,85,16,973,733,94,8,883,83,518,204,437,791,785,783,516,887,191,605,808,814,957,923,88,148,25,952,422,875,467,652,458,145,202,301,215,232,408,950,946,61,684,354,983,999,165,610,805,807,847,499,874,767,105,149,572,748,126,570,116,319,536,936,686,12,331,708,915,93,646,551,958,369,764,676,608,599,824,729,114,718,217,306,166,158,918,726,172,649,286,362,58,352,454,909,71,472,144,691,876,284,685,334,488,52,930,985,534,762,980,852,31,297,788,694,942,346,769,526,822,840,884,228,989,483,569,533,955,337,620,117,356,176,98,929,492,736,511,18,780,476,445,159,917,247,261,740,137,859,732,320,863,695,746,961,90,650,17,902,978,763,273,403,313,970,464,193,771,321,109,897,722,41,104,866,506,702,433,143,640,157,171,395,643,185,614,505,669,347,122,163,480,385,203,554,397,611,543,556,383,81,864,675,13,425,5,180,276,844,135,768,714,182,593,270,429,862,681,861,549,717,411,932,730,349,128,125,379,683,208,338,833,920,223,199,84,815,435,65,597,246,27,250,878,447,367,503,389,317,672,455,594,619,315,774,22,645,739,312,443,867,110,621,68,828,642,341,260,327,118,843,491,960,579,916,298,451,387,29,316,100,707,295,894,835,43,851,532,325,167,1,924,531,647,682,882,507,655,575,629,741,919,120,710,278,155,880,97,48,153,309,821,296,2,881,602,510,280,333,873,345,342,904,497,113,977,976,201,687,699,922,816,790,197,92,607,285,200,28,724,700,254,823,245,513,678,70,727,826,151,625,550,588,350,168,392,900,648,216,869,496,259,460,991,723,234,951,183,6,222,765,69,542,600,55,817,42,38,854,609,913,754,660,698,244,263,63,87,693,132,713,252,21,291,811,779,639,668,578,546,130,310,386,747,581,10,615,103,628,706,131,725,964,154,66,738,515,53,477,547,689,248,555,266,803,417,258,595,636,903,907,269,937,418,898,294,206,407,982,944,870,908,953,478,755,906,198,441,530,651,423,466,509,836,255,772,302,343,661,665,819,742,512,797,305,987,307,473,138,899,308,813,375,361,192,501,249,548,465,24,490,658,378,775,696,493,390,860,174,212,242,616]","arrowleft","","true","0","2","267","1000","[""0047_N1000_K0267_CLIQUE"",""0032_N1000_K0267_NOCLIQUE""]"
"","","","","","audio-keyboard-response","52","73326","0.0-50.0-0.0-1.0","","null","audio_feedback/right/coin01.mp3","null","","","","","0","2","267","1000","[""0047_N1000_K0267_CLIQUE"",""0032_N1000_K0267_NOCLIQUE""]"
"","","","","","canvas-keyboard-response","53","75457","0.0-51.0-0.0-0.0","","928","","arrowright","[142,56,299,750,793,43,65,764,801,129,718,387,428,6,386,512,141,798,101,219,704,151,78,325,27,734,308,224,411,391,936,120,960,280,487,659,865,806,859,559,3,39,169,835,944,211,838,725,728,647,747,238,9,696,507,175,57,48,539,161,496,816,668,516,602,509,895,675,852,898,588,869,771,172,912,555,964,2,147,805,642,897,599,243,81,976,31,427,417,644,541,549,654,84,756,214,582,123,855,119,839,705,995,155,459,546,591,769,344,138,493,840,708,678,210,571,519,666,748,690,608,894,945,0,97,617,443,4,176,903,12,253,401,959,525,729,870,318,309,486,990,630,688,504,901,287,51,607,295,70,112,984,536,35,415,804,941,278,368,530,327,707,745,317,879,470,303,260,47,246,232,544,382,430,406,402,450,902,193,918,124,812,556,34,268,477,635,80,923,375,94,492,603,403,910,763,367,578,606,205,926,917,337,973,867,53,164,790,758,365,542,615,40,20,706,715,292,605,454,171,679,643,724,744,933,614,562,262,113,75,811,807,814,766,66,259,534,979,753,954,267,110,842,860,970,498,469,322,529,5,809,331,773,986,788,697,426,104,674,963,595,342,194,234,981,412,593,657,369,328,548,46,400,664,876,508,300,731,228,570,938,826,69,44,199,739,410,134,131,827,949,573,474,276,22,177,239,304,490,173,899,851,594,491,451,545,888,596,212,824,395,584,629,437,829,920,275,464,191,358,483,655,11,217,581,396,557,953,159,618,770,432,961,462,468,36,965,310,203,677,240,74,408,543,360,863,208,929,167,273,92,740,330,85,560,857,370,755,983,586,511,90,887,956,137,332,640,568,682,872,144,711,781,971,424,73,598,156,98,653,336,558,379,346,270,832,89,843,321,862,265,457,305,283,376,553,616,61,900,349,476,440,118,389,472,236,416,713,334,252,947,625,192,761,320,388,132,279,882,820,934,600,927,789,925,341,712,928,168,235,733,160,183,274,982,146,221,266,200,323,988,831,572,448,307,478,50,96,873,786,91,204,95,14,648,100,157,488,286,621,955,467,41,500,592,908,272,620,130,915,165,433,904,667,611,16,540,64,319,372,991,743,79,418,244,394,636,565,702,489,759,364,800,819,931,890,623,350,952,521,721,992,229,818,646,767,145,520,746,347,122,409,561,884,854,311,385,497,458,907,63,68,333,445,672,423,29,975,883,631,335,669,106,880,670,673,361,810,339,374,166,72,877,67,538,977,15,601,893,77,760,612,256,754,102,460,121,363,127,580,93,255,650,978,226,413,258,348,533,397,574,343,83,967,638,966,989,269,896,449,479,633,935,828,290,550,108,687,324,237,419,58,461,797,107,922,357,658,567,784,689,994,380,297,972,473,692,291,213,916,298,225,233,218,114,987,726,837,775,133,88,808,684,737,17,475,587,564,858,942,626,384,140,849,817,436,301,686,248,316,999,499,62,980,950,439,693,10,201,948,579,730,510,778,452,813,930,627,924,836,998,485,271,28,206,946,55,190,105,641,656,281,868,932,732,197,13,8,680,551,639,783,149,438,263,501,249,353,996,815,135,738,796,242,399,7,913,447,405,514,609,535,632,649,179,523,196,441,735,651,296,634,230,359,719,940,665,662,723,293,494,821,751,87,312,390,848,352,195,54,914,874,421,38,974,282,378,111,685,429,752,663,716,727,103,371,585,247,393,505,834,314,495,566,652,985,481,637,968,373,799,937,241,115,178,117,220,847,25,366,33,345,619,381,772,466,785,622,757,569,537,776,338,456,701,762,866,802,482,435,264,21,532,99,340,791,527,531,222,383,749,703,613,24,326,604,185,71,257,841,356,528,42,722,526,420,362,188,795,833,518,82,19,377,563,162,181,434,714,465,645,517,223,846,414,524,823,126,289,471,86,695,861,787,209,1,794,513,502,969,777,671,148,506,958,774,392,139,216,939,49,889,306,215,37,45,463,261,742,997,878,660,170,676,780,577,254,765,150,32,23,881,856,943,909,116,552,919,547,109,355,844,691,288,589,554,431,189,921,351,891,442,503,875,18,154,962,694,251,710,444,484,284,845,700,180,26,681,245,480,329,184,683,850,885,250,315,892,398,590,453,313,782,163,699,285,59,575,951,911,174,803,52,628,825,792,455,853,736,583,60,198,136,993,158,354,277,152,302,128,830,597,698,422,76,871,425,231,906,153,905,186,717,407,864,182,515,822,446,404,661,207,202,610,30,957,741,227,720,294,576,768,125,143,886,624,779,709,522,187]","arrowright","","true","0","3","267","1000","[""0068_N1000_K0267_NOCLIQUE"",""0080_N1000_K0267_CLIQUE""]"
"","","","","","audio-keyboard-response","54","76446","0.0-51.0-0.0-1.0","","null","audio_feedback/right/coin01.mp3","null","","","","","0","3","267","1000","[""0068_N1000_K0267_NOCLIQUE"",""0080_N1000_K0267_CLIQUE""]"
"","","","","","canvas-keyboard-response","55","78547","0.0-52.0-0.0-0.0","","883","","arrowleft","[223,707,956,249,949,401,320,721,455,65,382,878,850,164,758,839,772,107,602,338,535,46,967,153,809,742,611,44,210,994,130,537,709,480,637,806,485,231,429,331,82,657,12,748,209,780,40,944,452,474,149,785,722,37,838,912,217,574,247,513,510,887,851,965,304,108,567,139,252,287,17,736,172,346,489,807,763,402,927,618,589,818,998,802,532,897,540,51,94,343,984,329,388,448,360,689,558,936,708,508,840,521,396,505,622,19,73,433,255,161,598,977,58,419,387,29,846,123,844,734,87,77,500,124,326,783,211,531,31,246,201,975,573,676,562,747,916,528,635,678,698,194,353,92,593,867,298,84,733,853,395,987,873,794,702,673,918,208,85,328,577,655,443,507,983,286,416,91,554,730,694,703,404,876,285,468,230,884,668,863,579,59,711,914,741,99,156,410,442,140,11,109,555,141,522,743,420,645,394,291,487,375,509,605,757,345,544,810,556,224,476,849,126,498,892,383,552,523,465,908,218,215,300,720,237,2,907,113,363,79,620,290,664,122,439,584,679,118,641,924,238,214,603,969,162,923,64,3,750,913,288,518,560,695,769,864,764,369,779,154,275,997,943,38,36,276,306,911,119,409,422,590,242,66,10,339,894,1,466,756,677,270,212,563,340,294,371,460,200,696,833,165,538,571,506,27,835,145,559,675,792,561,266,117,660,582,472,999,213,798,570,862,450,199,515,256,198,823,804,732,991,370,686,959,755,858,43,150,599,18,693,701,297,687,260,280,205,347,761,788,766,187,793,168,221,854,942,444,397,155,725,565,234,904,317,265,718,434,765,173,608,551,408,888,97,647,808,131,716,632,760,352,431,690,781,784,220,313,337,979,903,184,274,881,170,990,495,777,848,376,972,706,866,882,312,8,497,705,178,319,257,244,885,219,195,834,648,597,322,52,54,699,324,724,672,303,585,482,42,639,816,534,704,311,424,258,896,98,351,67,710,171,188,776,636,135,580,180,428,459,445,501,966,146,193,14,330,61,624,335,430,95,820,511,572,871,321,307,22,90,55,461,21,837,33,384,469,980,629,175,996,336,985,121,653,909,680,277,812,473,261,377,341,35,879,494,381,203,116,327,71,309,920,147,564,915,545,963,745,856,191,488,41,728,216,841,524,204,514,550,325,5,600,478,815,621,568,762,740,385,821,955,890,158,310,269,935,719,78,6,185,74,610,283,142,993,596,774,922,902,359,45,726,989,179,26,536,105,616,233,828,826,72,973,425,133,134,57,414,262,607,438,157,137,228,729,588,197,380,447,581,970,700,682,273,490,400,683,860,829,539,519,870,811,822,169,405,25,633,594,883,56,502,665,795,663,803,128,144,547,305,813,111,525,778,174,236,782,392,968,712,120,53,206,569,947,23,451,355,921,491,800,112,166,39,877,667,279,928,899,316,917,183,767,471,634,659,437,906,886,651,875,945,817,386,151,754,891,842,652,483,738,458,110,717,148,232,88,101,202,644,361,493,649,446,612,836,268,271,930,791,976,613,227,986,357,189,441,591,932,934,727,654,954,797,47,874,957,296,962,595,960,543,462,413,282,245,692,253,796,546,477,315,417,379,196,805,486,248,348,670,449,132,192,235,373,0,159,415,129,951,411,895,893,96,919,427,606,48,93,516,592,905,625,981,239,372,318,484,241,640,152,299,378,553,901,775,609,688,697,865,900,557,872,492,362,974,549,638,302,714,643,948,207,799,83,423,314,349,289,421,143,910,666,533,827,526,470,435,28,365,566,254,941,182,344,614,403,753,737,364,181,880,368,937,60,859,768,354,263,68,163,136,479,830,857,517,226,601,786,390,104,308,229,463,464,845,661,953,4,992,243,988,334,739,186,691,106,931,933,946,7,530,114,503,615,454,752,127,63,366,731,389,658,950,926,674,771,630,20,278,825,356,723,81,759,426,939,160,374,323,889,548,350,440,831,952,715,332,281,225,32,586,958,342,685,103,744,789,115,578,407,542,49,529,861,457,619,102,30,650,70,623,735,167,656,527,393,391,177,475,671,9,15,190,631,751,295,496,69,399,626,358,628,436,504,259,929,24,852,456,292,773,406,412,541,222,76,642,89,138,481,855,499,453,251,272,587,824,995,713,961,100,284,50,398,467,301,746,662,646,925,125,684,418,333,293,843,367,971,790,86,617,267,627,75,801,176,770,34,575,847,787,869,832,982,938,576,62,978,250,16,868,520,604,240,13,512,80,669,749,681,819,964,814,898,940,264,583,432]","arrowleft","","true","0","4","233","1000","[""0061_N1000_K0233_CLIQUE"",""0031_N1000_K0233_NOCLIQUE""]"
"","","","","","audio-keyboard-response","56","79544","0.0-52.0-0.0-1.0","","null","audio_feedback/right/coin01.mp3","null","","","","","0","4","233","1000","[""0061_N1000_K0233_CLIQUE"",""0031_N1000_K0233_NOCLIQUE""]"
"","","","","","canvas-keyboard-response","57","81726","0.0-53.0-0.0-0.0","","910","","arrowright","[98,748,182,102,517,443,769,612,714,439,126,204,283,73,920,423,379,825,314,931,628,202,781,6,512,103,937,392,598,760,301,167,727,702,18,845,196,489,278,337,844,122,163,975,173,418,322,515,600,328,681,2,776,373,194,509,284,568,976,933,697,406,601,689,788,28,436,755,157,410,119,203,884,631,449,584,432,869,93,231,426,19,656,658,511,588,107,589,153,334,61,255,85,606,272,233,305,560,894,346,550,995,567,538,304,758,667,130,270,447,444,687,974,99,91,577,327,413,356,79,591,437,805,703,158,994,388,605,633,744,795,10,803,527,17,936,682,109,963,531,521,655,227,617,672,391,938,706,878,94,971,618,128,540,125,883,458,86,904,896,83,308,804,579,826,35,734,274,653,376,281,496,254,722,226,243,640,800,873,32,433,180,866,411,408,944,47,370,921,779,875,889,778,523,942,673,310,416,587,559,211,650,151,331,576,169,664,16,29,504,390,349,570,484,766,880,663,440,215,287,154,96,330,981,888,101,136,991,574,970,801,461,627,31,860,864,399,251,715,704,829,475,553,911,77,292,333,950,668,901,355,52,457,651,537,688,14,649,214,175,508,877,853,732,479,282,15,285,757,811,256,193,629,133,471,298,402,229,201,290,223,816,336,637,532,940,387,312,870,563,848,754,608,791,973,999,827,249,325,237,859,694,989,159,80,238,925,956,199,262,590,765,200,110,669,749,872,161,155,76,603,564,705,39,474,241,294,992,269,72,120,263,459,429,586,472,357,497,212,190,320,916,733,551,271,549,137,242,359,998,773,403,247,917,44,63,455,737,184,731,306,596,802,116,786,614,53,26,222,770,220,297,140,362,611,9,412,84,343,205,840,716,378,818,78,36,95,768,499,280,105,1,569,62,962,874,730,463,5,724,516,260,465,70,309,55,927,300,522,244,695,375,25,915,317,842,401,296,58,176,924,679,858,385,302,546,431,690,442,46,774,909,607,562,520,882,865,75,738,419,30,341,636,693,467,477,907,595,843,118,849,405,132,557,729,464,482,275,358,11,145,452,397,383,150,49,777,279,977,711,400,216,22,548,832,510,41,51,148,966,539,473,404,951,743,469,747,794,177,683,582,645,701,498,797,454,784,708,736,751,850,764,809,0,131,834,905,676,918,113,45,396,87,554,988,624,838,854,65,675,493,881,421,534,720,912,526,172,856,602,264,66,846,684,23,585,451,386,952,993,835,490,367,932,639,112,823,354,40,425,485,114,236,871,817,796,979,491,54,462,969,468,893,123,718,239,89,949,395,978,710,507,261,670,897,415,939,541,793,69,780,982,187,377,685,446,709,500,623,852,980,621,566,986,207,248,597,634,530,857,60,533,213,147,71,228,3,899,972,599,108,252,518,424,318,273,316,879,13,635,983,88,347,303,68,746,820,654,810,414,417,289,323,160,234,923,393,717,240,259,245,578,960,380,81,642,725,307,197,648,371,326,232,948,833,372,198,315,861,594,762,592,671,168,967,100,8,422,926,863,374,7,868,466,56,368,996,908,913,555,565,453,961,235,470,506,928,822,807,790,221,166,434,430,572,64,230,613,353,726,134,552,821,427,288,620,74,581,502,495,934,106,38,129,666,902,33,398,947,677,661,604,364,225,42,407,360,286,487,837,691,741,90,365,619,450,189,438,124,945,82,906,836,445,941,389,382,573,505,209,955,891,735,246,616,171,847,922,898,771,121,115,721,536,267,622,319,299,959,127,812,958,798,188,321,887,785,615,742,311,149,210,258,558,696,277,162,543,338,146,782,435,839,179,384,792,712,828,141,152,799,997,361,626,324,876,753,186,185,503,831,699,217,501,293,895,632,478,138,914,723,583,139,313,775,268,890,34,745,441,647,929,420,24,814,351,707,224,366,492,759,21,488,513,480,968,253,409,59,519,483,763,329,965,930,535,381,752,644,218,719,514,135,700,20,772,643,740,919,174,27,984,806,985,638,954,674,713,756,142,339,561,767,641,92,593,486,571,219,181,841,276,528,295,265,728,910,575,394,646,104,819,156,739,344,117,350,208,97,862,761,48,529,903,342,580,348,250,494,750,610,964,987,143,542,680,165,659,815,686,630,885,783,892,164,808,544,855,144,111,813,625,178,352,609,953,678,448,43,698,4,183,291,67,266,652,657,428,332,660,340,943,692,57,170,345,957,547,851,990,789,824,37,50,12,206,662,524,192,257,369,556,335,525,191,545,460,787,867,665,456,363,935,886,946,900,481,476,195,830]","arrowright","","true","0","5","233","1000","[""0089_N1000_K0233_NOCLIQUE"",""0086_N1000_K0233_CLIQUE""]"
"","","","","","audio-keyboard-response","58","82724","0.0-53.0-0.0-1.0","","null","audio_feedback/right/coin01.mp3","null","","","","","0","5","233","1000","[""0089_N1000_K0233_NOCLIQUE"",""0086_N1000_K0233_CLIQUE""]"
"","","","","","canvas-keyboard-response","59","85075","0.0-54.0-0.0-0.0","","1133","","arrowright","[348,835,658,97,92,423,303,837,694,279,361,0,174,216,799,655,209,997,353,793,121,515,992,265,863,980,331,349,151,726,505,33,906,286,128,632,402,989,300,41,916,225,763,958,228,555,822,581,183,287,923,2,299,657,494,526,593,811,513,707,908,164,319,781,298,956,258,167,52,550,486,304,897,10,901,659,457,749,416,355,876,767,766,594,193,996,443,433,877,708,95,577,878,732,346,648,425,664,662,65,646,915,857,406,351,898,952,21,585,858,504,765,738,248,803,959,188,144,788,551,129,892,24,354,203,669,860,257,43,367,690,111,470,363,783,293,452,616,468,464,432,275,269,479,528,537,370,259,807,116,278,328,782,681,220,557,297,734,875,527,839,15,61,125,843,339,426,910,409,511,82,197,495,482,81,768,394,582,827,924,184,720,369,437,130,71,544,590,263,663,347,921,441,591,509,559,652,872,789,434,503,481,587,596,535,373,326,890,598,384,448,912,936,484,159,214,838,695,764,14,47,971,510,847,237,887,982,520,937,46,806,206,429,569,357,580,791,774,859,399,775,34,333,620,120,758,836,869,421,359,588,491,868,679,922,911,249,534,478,723,156,118,316,854,702,467,571,525,219,67,645,343,578,29,748,77,794,389,907,609,805,856,9,760,993,327,461,687,487,825,261,627,451,784,110,677,668,38,75,288,946,410,28,127,729,435,939,307,823,874,944,741,674,633,637,182,987,973,268,380,549,755,521,888,32,844,68,282,204,290,676,849,19,112,45,55,30,889,332,800,830,202,108,150,925,703,428,754,867,377,610,885,824,40,404,26,721,493,424,514,276,314,292,79,583,871,453,821,715,205,661,336,855,572,289,950,418,320,223,902,458,69,98,315,72,692,323,372,341,294,411,949,483,966,172,769,929,990,145,740,56,865,234,986,711,305,247,698,786,970,48,842,884,538,547,251,624,59,753,474,943,621,861,899,796,84,301,66,848,519,42,777,747,945,905,756,325,360,74,253,518,141,124,422,719,271,17,352,391,978,497,826,460,809,1,329,338,926,716,579,310,665,565,477,280,233,230,964,53,208,157,401,730,281,83,420,342,828,238,322,90,302,852,787,553,181,957,134,975,186,252,36,283,524,757,254,625,606,670,60,274,710,162,501,54,969,405,245,617,99,894,376,570,903,123,846,388,117,820,812,680,531,178,187,938,502,140,866,701,444,169,132,412,485,883,462,368,374,638,546,592,456,870,152,612,173,762,427,963,439,371,656,647,449,471,104,311,714,272,398,91,266,891,480,196,795,334,212,500,49,392,808,431,93,918,696,408,27,160,227,640,545,686,955,704,512,654,699,469,498,154,675,337,211,508,605,608,236,706,138,243,713,942,834,161,222,845,584,983,599,239,601,490,628,244,20,3,540,673,832,558,226,262,242,318,541,914,6,682,100,232,639,991,530,436,635,833,879,440,604,39,385,683,50,776,948,365,345,631,350,804,814,25,947,886,529,831,317,163,62,139,158,390,35,994,607,170,147,737,312,417,165,499,459,218,200,438,473,194,407,4,466,517,841,413,224,472,5,364,210,589,179,8,974,496,873,358,191,321,199,595,102,57,492,586,18,636,101,241,602,913,667,260,613,643,618,142,864,641,190,148,904,171,198,984,201,306,396,759,543,691,507,221,335,552,556,722,746,995,180,615,999,981,476,568,395,430,149,489,96,972,785,168,379,728,455,135,724,324,717,267,642,155,651,177,940,137,815,397,801,962,712,291,685,941,931,953,666,560,94,727,229,126,818,968,31,240,58,851,246,16,344,175,270,895,105,739,309,532,463,284,778,285,771,634,644,779,378,819,446,567,810,523,790,792,933,231,927,566,273,562,705,86,51,780,725,64,217,735,37,192,693,475,622,454,213,122,935,752,574,207,742,896,13,797,215,366,414,773,731,264,375,419,600,11,965,653,614,629,166,12,87,22,744,576,400,626,381,133,415,718,442,697,840,115,256,979,382,934,985,649,143,255,736,44,533,976,761,561,917,700,772,73,967,362,573,709,522,78,743,185,106,829,977,146,465,136,356,954,623,689,80,386,235,881,85,89,660,798,109,23,340,113,447,619,119,751,7,445,988,684,960,802,295,516,900,882,536,76,548,107,387,313,189,650,919,816,70,308,564,195,114,817,383,850,688,750,277,176,296,671,745,131,920,393,672,563,88,575,506,450,928,770,539,733,542,951,880,862,853,678,330,603,611,153,961,488,597,893,813,63,103,909,554,403,930,250,630,998,932]","arrowright","","true","0","6","217","1000","[""0047_N1000_K0217_NOCLIQUE"",""0083_N1000_K0217_CLIQUE""]"
"","","","","","audio-keyboard-response","60","86065","0.0-54.0-0.0-1.0","","null","audio_feedback/right/coin01.mp3","null","","","","","0","6","217","1000","[""0047_N1000_K0217_NOCLIQUE"",""0083_N1000_K0217_CLIQUE""]"
"","","","","","canvas-keyboard-response","61","88346","0.0-55.0-0.0-0.0","","1055","","arrowleft","[737,578,1,74,502,826,362,441,971,956,808,52,388,261,602,71,933,625,914,130,951,57,368,185,260,767,972,855,53,628,410,162,891,340,789,581,656,654,321,586,471,277,543,548,711,606,157,332,976,658,44,576,884,505,172,75,797,883,351,645,791,415,113,102,370,949,662,309,991,226,838,84,710,49,889,431,591,446,163,169,343,54,844,817,630,872,806,572,77,882,717,251,690,268,943,561,105,862,599,5,124,622,91,529,957,417,136,139,275,179,392,894,62,15,557,212,176,280,317,164,611,905,204,867,454,47,263,827,792,72,968,996,515,472,809,32,895,297,198,26,292,55,301,249,829,659,348,553,915,715,969,88,718,919,708,753,584,264,514,303,856,560,799,188,135,756,350,983,31,876,593,184,757,330,485,825,87,46,327,535,607,703,988,615,580,145,674,772,828,305,541,770,452,480,19,27,187,965,152,954,365,93,519,928,414,536,38,8,318,754,871,269,48,336,304,192,70,290,665,464,657,447,521,764,981,360,504,793,206,795,952,101,534,143,892,932,831,946,585,205,146,603,638,459,285,719,112,235,450,752,284,948,727,60,685,547,259,244,820,160,215,702,236,382,740,769,660,373,642,538,324,393,278,399,847,682,648,123,440,216,549,319,487,786,211,120,484,701,432,237,353,106,92,103,320,635,833,888,893,354,489,857,834,453,623,190,689,577,217,653,356,533,166,331,551,7,96,66,313,851,213,376,329,982,958,435,670,442,970,403,191,413,498,524,807,282,479,896,729,678,798,126,69,391,473,246,267,214,461,386,28,147,418,425,478,979,868,975,985,964,174,14,778,341,357,167,234,966,923,680,823,492,518,394,51,931,83,917,488,637,997,735,137,909,467,181,922,227,462,36,6,672,293,955,142,590,673,161,907,455,575,870,345,559,110,571,122,644,401,252,384,73,836,131,899,693,141,67,886,664,363,902,396,322,959,927,596,634,127,766,911,240,713,864,170,68,639,510,681,511,65,522,116,595,428,734,470,315,773,465,768,818,286,486,537,610,307,412,790,4,460,839,448,624,295,306,758,133,999,841,311,508,247,95,759,499,272,731,171,706,35,423,973,325,696,620,874,707,456,618,339,663,134,349,641,990,125,243,925,552,525,934,276,189,725,617,150,745,159,821,858,697,374,852,636,517,562,640,698,154,283,140,225,531,298,377,128,920,921,780,816,860,107,228,744,771,13,369,582,299,600,528,843,939,684,506,687,289,815,730,302,669,229,579,387,822,98,466,901,104,937,419,10,881,100,222,429,195,156,312,279,605,555,556,796,845,942,629,255,270,978,333,457,197,588,930,849,853,165,944,546,202,248,873,960,643,694,736,474,346,108,180,316,258,507,869,748,97,201,262,953,993,501,587,420,865,482,866,430,760,380,61,875,527,439,76,390,434,655,422,887,530,677,913,565,85,651,755,338,18,209,977,695,542,811,776,20,342,683,805,468,378,153,503,59,366,903,245,40,779,314,144,129,509,273,924,86,574,863,568,358,890,750,232,230,666,496,81,33,679,608,334,395,724,308,747,335,426,671,616,443,626,43,804,781,182,835,974,158,550,437,614,326,16,667,716,220,173,379,359,328,721,265,121,250,433,619,950,424,2,940,389,554,109,830,918,686,784,193,929,383,495,900,207,794,427,604,375,700,445,668,545,138,989,371,787,904,723,598,566,880,402,583,411,692,859,118,364,288,846,916,908,526,722,632,99,563,398,310,824,117,271,854,407,532,355,646,567,539,177,777,749,183,631,803,436,63,372,523,438,361,210,344,254,633,80,728,788,609,221,58,3,564,274,650,513,203,850,148,751,405,257,627,963,861,992,291,738,763,64,400,300,743,705,78,476,477,814,941,782,676,980,196,774,967,516,490,906,90,224,544,661,115,649,12,947,709,594,837,558,218,11,294,483,742,569,21,241,444,231,733,22,25,785,41,714,149,783,879,813,406,281,998,266,520,912,223,762,256,926,449,178,842,962,397,910,935,175,986,37,712,451,24,897,323,79,30,50,688,42,994,878,151,82,704,570,219,416,848,597,111,337,540,898,0,800,287,802,381,819,741,675,573,119,720,812,253,200,885,613,699,208,493,56,347,494,404,469,589,497,491,463,936,647,296,726,995,601,475,9,238,961,94,132,233,987,239,409,186,938,732,458,17,775,832,984,352,23,408,612,155,691,500,199,34,367,114,801,652,168,621,29,592,739,746,840,761,385,45,89,810,877,945,242,39,512,481,194,765,421]","arrowleft","","true","0","7","217","1000","[""0063_N1000_K0217_CLIQUE"",""0086_N1000_K0217_NOCLIQUE""]"
"","","","","","audio-keyboard-response","62","89346","0.0-55.0-0.0-1.0","","null","audio_feedback/right/coin01.mp3","null","","","","","0","7","217","1000","[""0063_N1000_K0217_CLIQUE"",""0086_N1000_K0217_NOCLIQUE""]"
"","","","","","canvas-keyboard-response","63","91771","0.0-56.0-0.0-0.0","","1171","","arrowleft","[105,656,49,322,507,266,79,702,956,174,692,270,732,308,91,2,748,496,193,212,809,964,294,406,883,649,31,143,800,960,435,411,543,231,62,572,489,722,871,967,540,991,673,788,864,41,424,548,10,359,680,846,390,505,858,500,164,356,412,199,727,884,409,391,488,437,567,638,802,704,16,349,999,472,217,976,244,876,122,981,361,602,413,607,596,433,821,911,816,236,844,290,150,592,761,619,15,937,427,76,850,375,891,432,728,889,341,210,963,551,102,886,310,901,583,85,332,589,700,930,246,154,311,118,373,686,68,823,67,824,965,529,779,321,757,655,598,466,378,637,370,19,111,282,206,229,651,558,205,765,845,839,42,490,946,422,806,134,26,144,158,837,998,419,940,235,133,353,795,497,968,153,969,801,509,442,670,59,528,65,273,914,396,459,720,404,724,380,468,784,989,652,163,849,571,513,521,263,345,387,269,283,302,462,725,57,890,691,608,660,841,476,222,179,428,99,997,898,289,121,319,421,135,794,35,215,239,601,285,423,588,291,195,46,379,923,23,983,743,214,448,696,534,654,631,201,587,701,562,642,763,766,632,924,506,408,879,113,512,793,464,329,454,351,962,315,460,82,342,376,347,123,626,136,900,482,847,32,919,774,127,807,469,813,392,859,202,389,786,643,381,264,445,393,166,749,943,194,54,83,561,674,346,126,300,939,791,388,617,401,106,502,368,74,40,440,987,759,108,337,669,957,569,450,182,537,323,25,438,256,147,716,203,752,495,767,682,820,810,416,831,835,925,129,331,429,131,517,226,152,825,175,934,181,882,550,594,45,719,577,721,580,309,486,662,865,81,566,787,478,645,624,170,316,855,233,403,541,949,618,664,274,446,915,542,975,622,89,894,625,931,746,770,938,944,920,95,6,100,683,581,678,578,386,162,167,98,491,14,781,623,93,792,320,279,30,726,771,734,555,160,535,117,146,848,187,514,693,636,169,590,663,833,978,44,87,929,547,836,735,312,24,974,198,877,805,72,313,611,712,750,461,371,913,252,355,119,741,570,635,729,220,552,634,110,754,988,568,78,853,96,826,538,880,980,140,777,961,292,34,287,28,953,426,84,933,326,296,328,161,713,888,657,145,916,209,184,627,142,186,646,556,88,405,508,908,1,463,13,151,706,250,398,141,385,493,286,525,238,208,731,219,374,293,21,336,736,862,576,641,585,73,224,503,70,63,804,22,986,107,595,29,928,709,61,697,344,358,677,751,241,803,584,64,958,168,268,604,554,431,325,842,451,248,48,157,972,715,295,467,694,305,230,51,372,616,688,402,480,828,504,340,223,990,218,449,644,3,420,615,586,605,994,764,262,951,518,789,363,243,58,258,524,479,819,20,599,723,869,245,52,910,132,935,695,952,881,425,90,874,921,197,815,995,278,539,213,171,11,614,633,8,196,878,640,97,407,458,189,177,868,9,234,499,430,80,395,299,742,954,527,549,125,367,834,597,335,471,979,668,948,456,659,369,699,242,857,591,526,730,612,281,327,441,470,687,745,679,221,808,484,339,780,92,892,593,515,782,173,575,298,56,530,365,307,280,942,520,918,613,348,783,665,620,354,39,120,738,254,832,553,718,176,822,414,18,116,357,275,711,27,785,773,681,338,907,124,477,487,318,814,139,545,658,447,352,896,714,155,498,227,733,755,799,277,546,955,485,861,672,260,366,66,257,232,399,906,945,38,912,798,417,306,188,753,812,740,516,511,922,684,159,667,811,43,675,453,992,574,47,276,271,114,304,778,737,207,843,897,69,531,483,544,600,165,112,966,904,818,148,384,582,775,606,769,932,873,115,776,762,671,377,397,191,985,790,519,418,204,936,149,457,703,666,383,101,228,522,172,941,255,744,760,53,758,333,977,854,465,247,240,927,364,902,415,71,510,303,887,579,707,993,77,324,661,12,650,856,829,17,439,628,55,609,178,225,860,903,33,710,639,284,104,253,817,200,648,698,330,621,360,251,180,103,565,94,394,261,532,410,840,851,382,436,899,838,50,183,973,630,867,343,36,647,350,756,60,317,109,455,444,434,830,501,909,893,443,288,895,560,138,947,216,563,75,996,926,0,192,4,474,156,653,523,870,185,5,797,190,128,481,705,452,885,629,971,796,259,866,137,267,708,690,533,875,272,984,211,768,739,249,717,362,917,37,297,852,265,494,86,676,747,7,872,334,557,772,473,603,314,959,536,970,237,905,610,301,400,982,827,685,492,559,863,689,475,564,573,130,950]","arrowleft","","true","0","8","200","1000","[""0041_N1000_K0200_CLIQUE"",""0070_N1000_K0200_NOCLIQUE""]"
"","","","","","audio-keyboard-response","64","92766","0.0-56.0-0.0-1.0","","null","audio_feedback/right/coin01.mp3","null","","","","","0","8","200","1000","[""0041_N1000_K0200_CLIQUE"",""0070_N1000_K0200_NOCLIQUE""]"
"","","","","","canvas-keyboard-response","65","95462","0.0-57.0-0.0-0.0","","1008","","arrowright","[52,460,405,255,923,601,977,971,310,965,981,51,300,589,510,359,557,886,419,931,795,372,568,605,929,591,818,512,745,319,609,790,943,504,68,159,696,249,913,164,77,17,873,367,779,534,112,598,844,193,155,654,431,336,569,715,421,435,5,988,122,514,426,69,59,172,706,930,326,197,807,879,403,62,573,232,180,373,697,887,365,309,221,105,555,693,636,194,582,596,610,809,828,210,455,348,723,175,1,49,343,781,401,966,991,527,74,934,578,222,611,542,955,216,997,629,899,206,862,183,60,834,800,349,208,35,454,986,230,585,861,133,488,418,922,785,719,424,56,442,620,562,277,755,129,270,406,740,602,257,225,732,832,711,334,920,625,684,752,721,531,956,237,16,846,753,623,821,872,276,765,116,950,543,999,256,518,910,570,94,508,507,97,76,871,420,538,536,244,993,220,843,495,811,566,817,904,351,925,506,157,619,608,453,393,179,173,177,574,525,410,294,290,215,707,125,644,549,465,318,108,185,968,674,733,635,852,694,902,939,338,28,572,533,199,730,436,875,50,160,345,892,328,942,295,439,391,949,972,716,709,136,868,71,643,880,513,640,712,628,626,847,497,987,686,417,485,184,250,104,269,786,311,27,822,332,970,796,292,878,896,456,297,36,402,200,478,23,38,761,484,906,996,808,748,948,881,117,639,86,738,245,411,447,12,760,839,798,541,673,893,618,64,414,789,337,924,95,469,7,279,758,486,658,835,653,848,725,487,744,494,559,18,837,917,370,998,165,409,845,201,757,735,703,316,842,836,224,202,746,841,111,688,340,747,329,78,385,606,515,890,702,55,524,374,634,908,898,672,724,630,153,145,287,227,299,331,9,188,907,99,546,826,749,312,120,131,967,474,134,933,529,430,823,130,273,379,915,15,863,565,57,81,394,72,126,226,607,252,416,969,285,132,274,4,236,471,509,390,33,651,308,480,669,958,344,375,65,11,718,452,467,82,317,895,666,558,681,211,198,650,148,384,909,40,754,687,776,727,171,662,793,438,166,109,190,30,154,984,306,769,990,782,481,901,360,957,150,876,856,135,386,114,242,766,207,178,802,547,490,203,614,975,685,253,526,641,119,850,251,339,860,586,944,537,466,885,980,441,433,139,814,346,774,24,231,127,522,378,432,780,464,858,363,911,335,151,2,246,701,289,322,857,671,849,928,499,174,234,978,699,588,341,736,762,181,182,449,314,83,323,627,963,664,678,169,366,41,451,84,941,383,552,649,553,54,656,443,444,940,600,34,106,959,412,663,833,303,936,575,212,897,831,63,347,369,498,838,540,399,176,446,759,581,301,26,728,113,675,241,597,676,523,870,357,737,567,648,48,437,138,20,521,960,107,775,580,209,820,801,407,219,143,243,258,149,726,3,472,445,247,479,516,156,613,708,815,425,642,964,355,356,787,46,954,551,123,293,333,750,350,530,254,381,700,853,982,799,974,291,170,8,617,43,92,532,288,265,794,550,45,962,31,704,916,415,926,162,695,592,900,239,19,397,428,66,932,722,354,501,827,894,604,953,101,979,352,186,476,813,67,142,691,528,976,768,492,947,830,395,382,320,905,298,144,621,313,854,128,622,713,577,891,21,502,286,770,280,918,141,805,564,22,32,806,272,98,459,115,945,307,327,96,218,682,75,39,137,342,261,259,742,158,804,475,90,624,739,579,729,825,788,315,462,667,47,88,505,877,302,189,888,380,590,89,615,235,914,994,37,196,927,679,500,191,771,632,938,720,6,110,638,803,205,284,238,305,683,87,325,358,677,268,784,422,233,539,25,260,756,229,883,278,468,473,79,61,477,266,321,595,371,659,717,388,14,493,377,874,187,660,692,364,829,400,576,264,450,767,361,792,698,912,882,147,661,161,992,824,995,80,103,167,458,544,985,751,563,903,869,616,937,489,840,599,44,163,561,714,10,743,73,705,571,93,519,217,777,816,946,124,545,427,921,448,248,731,989,228,520,851,819,764,983,267,483,511,503,797,652,593,884,353,855,100,810,866,665,491,13,271,603,587,690,368,392,645,710,457,281,195,275,655,283,689,778,152,496,376,240,423,296,668,223,146,646,583,263,91,404,548,398,560,554,680,387,951,304,865,102,330,214,440,168,396,362,470,434,324,864,952,53,935,633,763,463,584,70,517,772,118,121,213,973,556,140,0,535,859,482,812,413,889,461,58,919,791,657,282,670,647,734,85,408,867,192,429,42,783,204,262,29,961,773,389,637,631,741,594,612]","arrowright","","true","0","9","200","1000","[""0038_N1000_K0200_NOCLIQUE"",""0037_N1000_K0200_CLIQUE""]"
"","","","","","audio-keyboard-response","66","96446","0.0-57.0-0.0-1.0","","null","audio_feedback/right/coin01.mp3","null","","","","","0","9","200","1000","[""0038_N1000_K0200_NOCLIQUE"",""0037_N1000_K0200_CLIQUE""]"
"","","","","","canvas-keyboard-response","67","98823","0.0-58.0-0.0-0.0","","1117","","arrowright","[928,309,44,214,753,798,923,956,497,899,57,664,378,82,114,153,793,259,953,475,724,267,499,198,241,284,243,254,291,707,688,429,356,113,897,960,417,367,218,355,712,779,308,335,528,406,710,62,777,699,224,439,38,532,311,717,456,506,183,344,794,996,471,128,568,195,882,144,300,138,949,609,293,451,992,872,246,917,806,330,301,454,513,103,687,394,812,348,763,389,430,54,509,257,286,554,25,672,959,319,674,17,901,132,617,79,836,48,803,780,66,37,360,465,983,154,865,621,841,74,75,958,987,112,235,684,276,853,178,422,810,478,994,638,216,410,177,395,157,223,173,627,950,515,408,393,260,101,270,202,618,215,911,979,701,33,143,514,93,774,168,792,426,94,109,990,84,460,219,249,869,5,96,401,646,708,4,970,274,327,635,830,564,582,939,858,176,634,905,880,280,800,56,890,679,977,721,645,801,730,136,318,665,663,67,657,77,432,428,146,346,265,613,668,55,403,363,551,516,759,629,445,750,680,316,141,998,952,292,519,685,612,743,767,211,861,46,131,686,636,881,251,562,922,433,910,435,120,135,757,914,999,390,102,614,790,414,238,731,867,937,521,324,345,789,455,9,696,10,766,807,598,444,350,372,172,565,229,80,125,485,231,934,458,829,287,61,746,50,602,306,317,876,212,540,588,921,322,578,230,749,691,242,523,569,385,368,524,648,205,559,761,51,520,376,728,715,573,729,681,12,644,187,511,811,140,775,703,773,366,896,682,332,940,926,452,70,563,859,193,816,126,747,531,404,226,677,577,133,328,447,43,605,165,277,673,980,595,326,601,88,587,87,933,544,962,434,41,599,200,770,553,833,576,888,3,269,236,167,654,719,915,855,221,325,196,502,409,8,171,397,206,264,788,400,906,373,526,539,186,108,796,228,975,26,732,470,341,161,669,802,86,255,145,446,45,799,39,932,826,503,179,507,787,713,639,354,545,593,163,842,489,863,129,772,725,95,839,778,155,733,878,248,21,834,764,625,546,496,160,913,624,692,498,726,331,883,982,840,474,427,283,585,828,957,288,263,130,797,175,92,440,453,117,392,307,49,480,879,571,756,561,935,818,698,304,399,111,558,649,694,244,495,361,912,209,610,785,353,441,147,942,405,675,642,150,984,572,315,870,396,769,119,508,159,815,856,808,22,574,771,436,239,266,98,903,885,158,837,844,676,622,537,704,297,134,972,476,734,556,946,533,97,966,945,334,60,191,151,359,737,941,253,194,118,437,59,661,854,628,547,748,148,299,845,412,709,411,7,473,190,954,689,723,604,656,53,424,76,1,197,420,184,548,541,30,884,47,633,461,258,651,493,947,838,156,349,380,201,538,382,768,83,448,402,892,210,744,542,522,290,660,590,63,459,106,99,849,483,116,986,320,488,256,185,169,893,337,383,2,192,525,848,268,918,58,653,294,655,518,924,463,560,52,273,831,237,492,846,298,745,261,973,967,527,42,14,490,416,137,438,637,586,336,364,584,862,895,784,32,213,122,951,549,678,640,976,110,343,993,857,338,313,667,181,166,31,693,358,821,619,379,90,107,486,384,909,329,907,822,965,814,487,365,386,391,279,847,352,245,65,658,275,566,72,314,738,347,690,20,716,64,631,333,852,930,127,500,530,997,978,782,944,104,535,536,974,472,900,15,203,431,295,100,462,925,817,555,220,606,16,825,164,936,650,600,124,608,421,278,989,443,835,182,652,866,68,357,850,827,898,607,804,795,425,868,505,466,482,819,369,149,755,281,823,727,929,955,964,18,81,419,199,786,234,6,765,877,36,11,760,705,886,735,29,620,718,591,0,720,589,671,477,615,468,616,491,711,285,89,170,758,871,362,13,762,381,948,985,662,557,464,407,28,575,791,351,751,302,374,27,596,272,207,501,512,469,494,188,250,543,370,741,504,603,450,105,217,683,398,943,479,303,222,702,991,227,938,805,968,739,305,887,891,312,204,174,262,889,449,413,232,641,722,552,666,781,919,851,510,481,289,69,415,225,626,567,78,904,35,570,961,581,623,310,323,24,742,695,740,736,423,643,783,162,233,714,123,208,517,23,971,457,706,963,995,529,864,809,387,91,189,247,988,375,860,931,252,371,342,927,296,115,442,139,659,240,920,832,40,902,271,969,820,121,152,180,580,282,484,594,550,630,632,875,377,34,19,340,752,697,592,388,73,894,85,467,776,670,754,142,321,874,647,700,813,418,843,916,339,597,583,611,824,71,873,534,981,908,579]","arrowright","","true","0","10","183","1000","[""0084_N1000_K0183_NOCLIQUE"",""0012_N1000_K0183_CLIQUE""]"
"","","","","","audio-keyboard-response","68","99825","0.0-58.0-0.0-1.0","","null","audio_feedback/right/coin01.mp3","null","","","","","0","10","183","1000","[""0084_N1000_K0183_NOCLIQUE"",""0012_N1000_K0183_CLIQUE""]"
"","","","","","canvas-keyboard-response","69","102273","0.0-59.0-0.0-0.0","","1221","","arrowright","[583,832,368,175,728,875,289,620,164,343,14,281,525,8,761,497,886,526,124,591,380,718,254,280,800,725,720,645,310,223,1,799,959,431,561,772,102,962,488,856,385,866,464,938,125,710,420,314,472,795,275,511,94,613,916,322,914,353,232,811,658,802,299,191,597,5,458,255,952,129,667,239,825,162,937,121,406,665,167,357,677,176,194,659,50,697,746,190,358,906,122,672,848,71,853,619,592,471,694,557,285,808,215,23,554,688,770,317,290,814,108,144,123,678,283,794,477,371,900,513,273,625,936,179,862,819,318,201,942,67,228,980,812,941,443,362,354,502,7,788,62,43,63,608,621,523,422,888,664,890,650,899,934,778,721,252,839,246,33,972,877,271,517,257,779,968,172,774,407,199,221,429,734,185,951,180,766,85,401,286,249,524,600,142,627,762,60,633,205,17,490,326,843,492,601,396,943,987,453,985,296,155,648,389,0,505,166,922,294,148,140,51,379,31,820,466,127,833,662,400,264,300,491,369,655,501,114,773,756,642,224,259,792,19,616,755,424,615,676,136,588,638,669,910,767,887,818,365,926,315,377,4,402,798,738,250,26,915,708,507,752,724,966,99,234,719,405,521,759,414,879,846,229,470,533,478,112,652,881,903,787,90,958,622,302,395,321,134,408,238,918,334,876,935,548,116,528,565,24,660,41,445,704,844,438,210,171,92,177,119,447,333,552,432,953,919,301,902,582,692,182,151,409,45,457,42,81,363,196,274,542,485,816,356,991,106,226,522,564,160,791,16,723,585,531,486,12,806,143,731,78,163,76,506,646,606,146,545,96,480,222,911,355,2,750,170,98,684,917,327,398,895,889,184,840,913,834,34,967,737,404,262,996,109,868,924,602,213,780,392,929,417,361,707,295,955,777,52,709,444,589,649,323,643,781,484,351,89,940,769,59,22,47,13,641,572,335,138,345,740,569,783,105,15,104,671,38,555,448,135,324,945,359,993,624,236,53,156,563,912,101,595,288,69,113,626,220,775,562,244,57,974,878,682,984,496,568,9,558,328,261,91,703,305,198,118,909,733,907,499,836,901,864,423,247,61,338,493,527,893,367,994,370,675,387,982,584,433,634,416,702,437,487,896,609,311,39,852,145,455,503,732,768,512,782,373,696,587,544,518,989,434,66,612,481,206,378,340,636,149,364,154,35,153,640,28,551,897,202,304,394,686,173,933,187,111,711,465,830,508,214,30,133,574,25,382,292,807,975,276,654,771,165,630,467,265,596,701,932,336,880,988,541,268,976,64,656,489,661,426,473,40,386,297,308,3,736,329,786,469,969,815,209,874,298,793,132,462,55,693,452,547,850,319,883,263,418,898,347,637,500,242,579,158,219,241,979,981,550,70,529,307,415,873,685,571,399,110,860,115,231,714,570,72,857,168,960,516,999,291,743,931,705,747,784,828,603,282,147,203,851,454,391,412,559,849,647,748,346,892,730,745,272,183,992,494,712,413,845,742,425,192,245,920,599,532,538,653,885,348,430,303,817,930,594,965,29,623,861,20,128,631,461,605,805,251,82,607,260,803,6,651,381,590,178,679,546,673,306,670,86,515,810,435,482,927,240,107,208,657,716,207,460,74,804,663,681,68,872,331,197,617,139,235,758,925,18,32,995,393,765,54,997,908,520,865,189,540,543,823,580,635,330,790,549,904,131,204,95,954,293,483,141,372,990,277,269,451,375,267,83,838,944,188,80,698,971,727,161,410,93,243,639,344,614,320,946,476,690,831,342,227,977,749,950,73,539,537,441,316,729,822,225,577,474,44,813,683,556,436,117,706,699,325,195,530,744,428,87,894,427,504,560,77,891,835,287,212,442,668,576,751,854,27,760,97,923,611,700,785,440,186,126,535,397,270,258,826,248,986,130,610,376,279,56,739,169,921,536,939,58,928,174,842,821,439,193,216,152,695,352,37,847,233,884,137,384,764,383,644,578,237,754,722,411,419,680,230,689,666,514,253,978,957,824,49,863,841,388,776,510,46,278,797,218,459,390,837,827,726,956,509,498,10,312,217,983,75,349,628,341,789,449,809,567,905,855,867,586,284,961,374,266,973,629,79,350,859,970,100,463,753,200,575,713,150,964,360,566,11,337,313,181,534,450,632,475,715,741,598,88,757,869,36,332,796,339,103,882,519,581,421,309,717,479,870,618,947,691,604,48,949,948,998,366,403,211,495,963,21,687,84,871,468,763,573,593,446,735,120,256,157,858,553,65,456,159,801,829,674]","arrowright","","true","0","11","183","1000","[""0030_N1000_K0183_NOCLIQUE"",""0086_N1000_K0183_CLIQUE""]"
"","","","","","audio-keyboard-response","70","103267","0.0-59.0-0.0-1.0","","null","audio_feedback/right/coin01.mp3","null","","","","","0","11","183","1000","[""0030_N1000_K0183_NOCLIQUE"",""0086_N1000_K0183_CLIQUE""]"
"","","","","","canvas-keyboard-response","71","105759","0.0-60.0-0.0-0.0","","1233","","arrowright","[387,639,748,97,956,661,464,891,513,924,951,830,156,109,678,382,756,658,892,774,736,607,894,171,911,46,765,822,463,518,469,835,669,826,974,441,476,114,939,393,471,866,833,541,371,290,967,181,253,342,112,604,504,565,598,496,440,261,490,827,280,90,721,917,310,309,783,175,619,143,45,494,806,899,139,401,702,996,876,136,760,510,981,352,689,493,69,453,738,575,450,970,649,233,533,524,60,588,125,232,554,698,747,943,433,148,888,538,883,9,5,300,193,569,995,467,998,472,435,227,159,311,111,117,301,383,36,662,56,631,867,52,54,527,566,856,611,178,466,421,210,268,700,6,805,155,909,479,887,769,794,800,777,443,959,932,303,250,180,62,644,561,546,12,516,500,643,540,545,884,502,424,989,265,365,809,307,207,55,552,935,946,725,322,767,127,764,361,394,931,2,413,519,600,695,414,629,398,958,880,895,578,634,563,429,873,922,529,531,576,350,50,388,64,674,944,708,523,209,416,411,799,858,417,973,564,100,515,829,306,667,420,141,366,693,0,375,737,386,850,509,145,614,93,113,146,419,32,226,840,75,692,881,871,788,135,861,836,147,405,18,110,770,630,478,832,722,699,37,258,459,666,506,739,908,73,659,983,130,321,620,313,847,780,758,555,283,39,859,474,977,507,74,743,304,409,752,329,656,14,1,633,71,842,378,914,497,247,763,327,343,925,811,3,603,205,173,949,137,40,636,572,921,295,744,317,594,24,824,986,423,945,733,293,741,460,445,278,177,514,844,492,92,525,941,255,848,418,288,211,244,131,860,517,854,195,38,370,449,820,583,980,904,486,544,885,714,318,102,190,165,169,651,451,781,878,577,969,83,592,340,196,168,668,368,972,635,221,792,473,44,332,353,101,21,58,79,213,456,965,462,133,717,652,455,225,22,292,465,697,432,586,872,843,331,203,216,912,551,252,657,379,521,641,458,475,916,918,993,819,231,706,499,334,574,964,448,270,70,279,670,839,640,395,163,940,431,457,263,324,663,358,846,954,535,906,621,426,362,230,7,167,778,585,825,344,246,801,302,29,779,105,865,345,407,522,927,282,77,593,837,536,723,796,882,374,262,271,238,11,966,746,646,330,89,567,390,212,802,400,391,184,886,987,106,879,997,140,320,828,647,542,851,34,122,683,947,241,396,915,718,487,556,129,709,902,88,187,913,185,869,893,477,41,534,13,96,308,897,719,762,742,971,757,601,728,821,285,798,626,35,166,852,968,716,348,793,615,580,446,953,161,775,402,355,249,776,735,380,26,589,63,773,642,240,874,428,42,286,120,447,503,305,399,808,264,559,67,680,732,149,277,602,690,761,437,713,206,191,994,550,625,637,98,31,815,220,789,875,520,287,755,704,299,251,950,243,235,269,595,351,333,632,807,197,16,219,25,671,787,727,703,928,624,151,57,664,15,597,134,581,952,444,573,845,495,999,934,28,296,234,923,547,491,679,107,217,33,30,864,791,957,672,410,936,905,51,930,87,612,49,123,834,933,710,43,144,19,548,645,201,59,346,192,976,734,750,150,200,438,4,543,530,294,730,926,797,48,65,115,256,275,696,560,360,772,103,960,91,377,482,354,810,786,194,10,254,979,454,715,782,605,701,124,537,686,610,95,186,731,754,347,870,128,397,27,685,975,337,562,215,654,655,877,558,434,920,118,849,373,673,590,991,660,498,406,938,985,66,470,298,47,853,389,962,273,818,831,172,404,863,485,316,170,208,157,682,276,907,628,501,955,606,359,676,85,617,372,369,319,154,539,711,367,61,557,694,488,759,116,896,803,363,481,729,349,579,174,142,82,425,771,189,903,596,204,978,461,132,188,804,376,766,489,289,158,222,990,314,20,153,862,430,768,80,910,274,119,483,326,665,890,480,242,259,138,312,568,385,236,638,720,384,616,898,988,508,613,267,532,284,528,160,900,618,868,328,121,335,427,183,214,72,176,245,297,338,813,68,239,675,627,751,681,99,412,512,325,78,587,266,339,23,511,272,152,749,691,584,790,688,553,392,707,814,218,198,677,229,179,857,684,687,224,182,364,126,571,705,929,816,855,381,76,982,653,942,439,919,570,784,164,422,948,505,992,549,53,315,608,623,812,442,86,8,237,17,753,452,356,84,937,817,901,104,81,336,648,599,415,436,889,591,582,162,785,823,403,650,740,94,712,260,323,257,223,838,291,108,202,961,622,228,484,357,724,841,281,468,745,609,199,341,984,408,526,248,795,963,726]","arrowright","","true","0","12","167","1000","[""0068_N1000_K0167_NOCLIQUE"",""0078_N1000_K0167_CLIQUE""]"
"","","","","","audio-keyboard-response","72","106745","0.0-60.0-0.0-1.0","","null","audio_feedback/right/coin01.mp3","null","","","","","0","12","167","1000","[""0068_N1000_K0167_NOCLIQUE"",""0078_N1000_K0167_CLIQUE""]"
"","","","","","canvas-keyboard-response","73","109197","0.0-61.0-0.0-0.0","","1247","","arrowleft","[68,801,643,265,379,713,530,839,989,526,485,734,985,454,31,24,374,570,339,983,531,127,702,699,618,323,835,123,730,539,375,139,64,733,776,213,597,943,608,373,536,78,194,540,966,237,773,615,625,118,383,940,646,892,145,705,320,81,350,17,804,313,659,883,228,805,736,342,595,464,558,511,202,154,811,38,928,694,58,916,371,842,553,971,418,399,881,695,577,910,334,416,686,260,583,589,901,821,687,419,872,426,961,508,203,774,234,258,447,562,408,75,684,982,298,156,261,249,115,912,460,816,309,791,957,135,960,715,114,134,915,85,475,528,435,697,13,566,929,792,397,506,120,582,293,554,831,222,709,864,467,144,696,57,349,742,188,210,495,861,704,278,331,18,22,745,231,299,214,158,86,909,930,690,545,44,259,255,89,208,711,954,898,698,401,850,639,593,544,907,336,6,101,626,488,997,752,656,944,23,682,171,750,250,455,588,515,710,224,823,855,549,8,560,497,653,722,660,701,878,889,641,829,39,431,513,411,242,428,564,509,521,749,978,128,365,493,619,61,232,27,591,551,723,899,476,268,474,613,592,486,150,182,815,879,518,190,388,843,693,572,846,568,756,458,876,630,762,651,301,649,241,108,663,218,343,317,576,37,291,307,285,832,753,781,346,937,606,905,737,559,664,533,122,35,212,247,391,65,207,796,642,189,116,427,200,890,886,244,731,755,517,865,840,806,184,598,584,74,484,529,969,602,151,738,166,836,319,918,130,328,256,26,449,783,300,146,494,578,987,913,382,859,561,452,405,195,325,672,95,797,129,243,716,501,49,340,871,421,950,355,290,280,857,725,729,110,947,799,707,914,72,367,121,364,279,461,185,691,967,739,851,266,103,827,990,459,788,263,556,958,173,25,286,790,854,267,976,833,706,596,21,407,1,949,875,834,999,661,933,853,599,269,964,137,422,692,552,87,113,482,384,305,819,830,357,296,965,352,420,245,527,164,424,700,622,477,921,50,445,654,310,924,187,683,238,221,429,59,689,746,505,895,77,768,502,174,209,465,624,321,679,789,959,294,676,433,36,934,353,782,233,390,91,257,671,270,631,19,732,610,205,480,920,939,314,366,229,522,498,887,9,96,131,807,41,877,979,824,442,893,227,288,793,662,644,772,674,546,99,312,828,282,984,900,847,15,345,54,176,911,980,412,363,272,826,105,287,149,273,844,438,945,471,919,820,152,650,175,450,322,763,76,277,785,463,335,903,525,657,519,775,392,868,94,817,248,794,90,714,487,481,754,504,98,304,73,432,441,703,629,904,93,69,499,246,409,215,537,324,708,302,810,516,337,351,822,448,393,16,292,132,612,740,894,818,623,52,111,780,946,370,5,569,63,430,444,925,926,168,565,436,670,972,161,764,344,48,669,841,677,437,358,800,462,483,160,975,769,760,389,489,758,303,104,721,402,557,993,771,398,66,645,902,124,196,891,289,155,179,217,605,275,743,119,726,882,47,387,567,329,141,102,284,354,962,492,600,680,472,376,802,874,148,360,53,330,579,40,748,236,604,456,440,538,42,169,377,571,524,787,356,7,977,786,813,434,43,974,981,870,264,637,274,922,34,20,678,503,496,417,410,172,457,638,616,406,636,297,955,996,162,29,765,362,952,938,838,936,534,963,727,315,510,766,490,888,724,347,45,327,254,186,614,271,163,665,837,988,125,197,211,46,3,777,380,415,587,338,932,896,744,157,192,198,142,860,318,784,439,183,283,112,667,803,621,2,795,970,216,948,825,466,906,718,575,225,931,632,240,973,372,4,276,332,394,542,82,55,333,808,635,863,953,856,400,563,652,761,927,425,136,51,757,590,70,941,378,507,395,648,658,998,884,11,923,199,858,532,206,14,170,308,56,862,239,381,479,106,594,770,995,747,147,991,62,423,688,470,341,666,316,627,109,845,281,133,848,668,640,469,951,628,306,574,140,28,647,728,138,633,193,235,178,67,869,167,741,601,97,223,220,897,717,165,550,720,181,369,219,751,478,71,514,348,968,956,852,451,446,153,685,986,609,607,620,107,159,468,935,311,655,812,992,681,443,295,143,396,226,512,262,767,413,885,908,79,404,520,500,523,414,385,849,230,201,798,84,252,712,0,603,100,361,586,942,673,573,60,253,880,204,191,403,30,251,326,92,473,917,585,873,117,735,180,809,548,866,83,675,12,88,126,359,867,541,10,779,580,453,547,719,80,634,491,617,555,994,32,368,33,543,778,611,386,535,581,177,814,759]","arrowleft","","true","0","13","167","1000","[""0007_N1000_K0167_CLIQUE"",""0011_N1000_K0167_NOCLIQUE""]"
"","","","","","audio-keyboard-response","74","110184","0.0-61.0-0.0-1.0","","null","audio_feedback/right/coin01.mp3","null","","","","","0","13","167","1000","[""0007_N1000_K0167_CLIQUE"",""0011_N1000_K0167_NOCLIQUE""]"
"","","","","","canvas-keyboard-response","75","112550","0.0-62.0-0.0-0.0","","1108","","arrowleft","[345,843,380,496,897,784,544,919,693,236,525,108,604,574,868,9,248,845,835,72,674,311,417,853,184,77,790,314,341,411,208,842,303,595,156,138,774,429,528,571,109,243,242,319,457,469,765,176,852,268,205,584,286,16,263,498,707,163,551,230,162,347,864,440,875,764,856,427,735,204,101,560,7,696,855,155,172,804,733,918,678,511,306,632,309,96,152,647,472,694,718,260,483,461,888,898,363,68,419,912,425,908,979,533,530,857,752,151,102,514,141,783,379,977,383,351,486,925,681,516,413,201,923,447,180,166,910,285,337,475,837,222,366,245,65,616,515,382,60,396,83,348,450,797,8,478,249,904,532,573,389,265,825,926,709,836,322,305,55,899,250,52,349,854,557,597,378,505,712,225,297,813,682,547,543,335,485,644,701,992,150,121,41,502,963,940,206,69,234,781,894,210,200,821,687,73,818,47,371,431,820,6,747,529,367,860,85,318,504,967,114,428,169,446,90,336,833,161,433,492,293,410,858,488,537,209,739,104,767,274,289,740,946,580,523,884,480,53,758,420,296,621,673,827,834,283,817,444,556,717,140,730,948,2,375,970,524,803,778,659,173,626,535,686,75,723,878,729,178,467,753,645,947,598,240,728,680,57,913,299,328,866,476,74,300,149,685,18,838,656,357,589,643,531,404,943,812,513,756,207,97,456,246,623,373,873,609,400,365,981,732,786,364,94,193,630,216,956,987,412,640,832,454,771,849,795,344,211,252,649,734,215,710,374,614,353,607,490,594,637,738,978,255,527,744,796,559,814,327,237,715,830,520,891,610,270,409,329,307,110,961,772,218,705,526,633,895,798,863,320,185,569,189,972,464,563,697,991,993,691,313,362,103,99,661,460,5,617,231,120,677,87,426,826,759,503,996,742,553,874,267,816,54,32,819,808,969,127,664,441,922,449,330,949,893,385,334,29,384,316,175,23,238,70,195,154,984,957,136,439,458,50,227,279,106,408,900,517,746,791,361,123,555,22,258,741,56,355,495,844,259,462,800,482,212,851,675,465,13,28,340,702,810,471,391,453,254,986,118,840,129,793,422,882,224,506,983,934,906,871,750,518,944,542,720,802,346,30,49,581,539,301,841,343,760,418,861,17,280,124,194,15,920,684,10,995,755,261,445,153,601,890,332,202,902,92,737,323,971,33,510,636,534,976,743,605,25,463,613,251,44,294,931,658,959,37,938,568,668,792,459,424,655,917,281,168,985,139,951,907,727,624,578,777,745,722,262,42,921,443,0,591,964,1,657,62,708,115,67,699,586,725,883,839,14,284,867,619,501,997,339,749,51,438,86,387,639,787,850,650,935,392,159,434,721,78,183,191,629,407,239,144,974,763,442,219,794,437,576,665,338,561,111,989,829,679,122,575,776,889,847,703,91,38,911,901,93,167,914,394,333,61,939,789,190,135,779,770,414,160,998,479,567,171,369,217,397,432,494,519,641,726,291,540,892,89,663,698,12,214,612,182,386,572,304,924,499,402,466,290,754,975,711,761,76,324,695,455,881,885,548,4,631,929,81,401,582,187,46,896,473,606,179,117,500,719,809,958,762,100,45,228,955,704,470,157,620,932,622,368,980,999,950,40,331,669,558,806,491,688,436,302,653,321,628,937,768,468,27,736,326,11,667,562,59,43,372,769,579,133,405,676,886,58,805,877,611,134,35,359,724,962,125,24,39,264,618,876,477,646,198,916,312,638,403,585,370,452,731,395,489,435,381,126,689,430,773,31,593,942,107,203,308,799,859,615,652,143,105,113,82,671,145,879,406,112,416,666,84,310,186,221,79,788,21,317,128,546,662,714,642,497,26,982,869,966,954,905,487,226,278,564,936,522,256,275,748,98,342,909,288,848,3,146,648,34,196,692,672,541,933,577,660,521,608,399,287,545,421,148,651,780,915,550,757,565,119,801,973,199,554,241,865,282,229,354,493,716,276,602,634,670,393,536,968,509,80,592,170,298,277,415,451,64,266,965,870,360,603,398,751,165,390,188,570,552,960,775,588,583,142,930,824,63,766,181,164,232,20,132,625,690,474,807,174,220,600,994,213,197,484,903,846,988,269,512,376,48,272,95,566,538,423,549,700,271,257,350,137,782,235,683,352,952,177,822,358,815,928,599,627,192,66,247,36,244,953,590,388,147,273,587,828,785,635,880,19,872,862,654,507,325,941,292,887,295,253,596,315,223,508,448,481,130,706,377,131,927,945,71,116,356,823,713,831,88,158,811,990,233]","arrowleft","","true","0","14","150","1000","[""0007_N1000_K0150_CLIQUE"",""0086_N1000_K0150_NOCLIQUE""]"
"","","","","","audio-keyboard-response","76","113546","0.0-62.0-0.0-1.0","","null","audio_feedback/right/coin01.mp3","null","","","","","0","14","150","1000","[""0007_N1000_K0150_CLIQUE"",""0086_N1000_K0150_NOCLIQUE""]"
"","","","","","canvas-keyboard-response","77","116220","0.0-63.0-0.0-0.0","","1353","","arrowleft","[519,197,241,572,44,563,170,700,722,724,547,880,43,993,232,426,420,892,773,807,682,163,10,579,514,134,833,204,704,151,628,8,61,686,543,966,29,255,969,155,165,565,42,615,731,172,65,552,176,452,855,502,293,646,949,942,485,501,273,285,12,706,243,609,71,100,995,622,771,867,936,199,251,558,903,205,910,918,793,970,365,972,408,854,28,524,698,162,847,604,259,92,279,336,896,734,535,479,64,805,960,142,872,443,446,189,889,663,141,553,330,32,288,998,729,996,937,436,36,110,763,318,624,919,940,641,416,124,311,31,668,794,292,831,800,113,296,980,427,437,471,278,116,234,758,49,573,121,294,264,126,105,140,990,540,477,109,733,63,530,691,648,633,414,620,676,39,371,200,725,507,381,606,643,50,671,869,639,571,545,346,786,795,287,850,245,187,857,405,802,57,958,757,593,202,923,895,379,846,316,27,280,741,720,425,404,577,393,913,13,89,347,20,195,321,956,486,74,953,814,83,157,412,363,312,231,883,982,107,75,825,66,384,496,392,934,858,374,367,76,410,787,711,271,428,380,254,122,827,206,730,551,759,882,260,439,813,512,377,276,988,434,557,822,845,900,749,482,201,320,590,242,947,764,297,753,559,718,511,169,939,978,88,317,464,848,610,390,531,533,450,692,809,836,638,22,356,185,520,660,928,522,69,738,484,387,529,769,562,419,283,302,983,258,556,307,591,397,687,38,339,723,166,898,654,707,820,523,742,826,383,118,298,765,612,52,344,267,304,119,238,174,679,493,564,865,84,252,208,462,47,747,2,305,655,352,35,369,213,457,67,237,270,136,943,16,328,449,340,791,359,637,981,207,877,0,222,308,532,327,491,840,413,541,478,574,670,929,815,335,790,963,180,295,930,688,534,194,619,932,33,90,886,353,433,560,683,629,596,152,921,193,772,799,196,587,908,229,474,567,248,762,661,421,314,6,341,653,601,159,250,673,811,149,368,987,370,599,473,447,400,144,652,198,14,282,549,366,513,756,104,950,135,594,470,803,999,542,21,469,677,695,735,917,53,911,382,468,409,844,9,586,191,480,62,875,914,497,640,568,402,705,424,870,18,605,203,389,81,946,588,150,592,190,348,505,681,994,623,483,465,128,824,832,461,716,954,864,95,516,959,902,616,580,472,146,776,997,876,810,797,210,806,120,54,56,518,182,821,656,228,131,792,651,378,912,40,360,901,1,881,885,265,964,595,894,138,659,649,476,153,783,326,99,504,555,782,664,87,85,538,458,830,575,338,396,422,223,926,139,597,343,375,971,979,51,487,938,407,431,508,967,249,986,219,495,526,927,798,488,702,766,218,581,351,893,890,816,106,388,48,7,253,907,70,257,678,442,212,324,37,164,115,217,569,915,111,737,613,853,26,602,517,96,817,60,86,310,808,709,767,372,760,945,333,780,904,354,398,456,744,740,350,515,11,925,750,313,690,866,909,214,401,506,537,130,167,701,713,91,834,440,812,897,829,968,878,361,627,101,306,645,548,503,236,332,647,838,459,145,739,55,617,329,785,977,669,103,585,841,411,323,445,863,362,112,839,93,97,215,132,494,862,635,935,268,550,952,183,143,235,924,708,828,957,710,19,301,931,192,788,211,634,239,275,719,466,94,680,583,621,46,598,342,178,868,227,879,454,674,247,974,625,394,406,819,24,728,364,636,5,441,23,186,961,41,500,78,299,177,168,148,79,693,626,804,179,784,490,509,714,385,779,859,399,448,274,736,188,746,976,224,34,644,429,584,80,630,345,68,98,403,778,395,82,920,154,108,916,233,632,941,475,536,715,460,948,216,30,269,618,611,922,451,160,570,300,499,554,984,955,658,777,334,25,835,852,965,578,291,891,246,887,73,685,748,751,290,418,376,303,315,319,325,281,225,684,789,849,286,527,689,905,842,697,129,240,672,951,417,754,727,127,607,481,775,272,992,888,781,631,755,561,985,72,277,726,15,438,261,761,230,528,455,17,435,133,944,712,973,467,576,58,823,873,158,603,184,703,566,608,721,173,884,117,156,667,899,373,171,732,114,860,256,665,432,161,642,752,209,123,871,415,975,696,423,137,743,102,492,521,989,221,284,614,386,226,796,220,322,933,525,498,125,147,589,768,837,181,45,544,539,430,861,699,59,489,675,856,444,358,175,991,546,262,4,266,801,309,331,818,600,851,662,906,349,289,263,510,357,650,657,843,717,694,874,355,745,453,582,962,3,770,244,463,391,774,77,666,337]","arrowleft","","true","0","15","150","1000","[""0061_N1000_K0150_CLIQUE"",""0053_N1000_K0150_NOCLIQUE""]"
"","","","","","audio-keyboard-response","78","117206","0.0-63.0-0.0-1.0","","null","audio_feedback/right/coin01.mp3","null","","","","","0","15","150","1000","[""0061_N1000_K0150_CLIQUE"",""0053_N1000_K0150_NOCLIQUE""]"
"","","","","","canvas-keyboard-response","79","121973","0.0-64.0-0.0-0.0","","3528",""," ","[101,822,924,309,264,329,217,828,733,257,748,708,936,31,788,770,678,383,639,901,551,227,11,242,412,181,240,903,392,250,319,248,368,447,38,956,422,137,475,809,638,223,105,166,972,74,0,933,755,542,99,578,479,646,591,573,49,655,868,229,161,724,570,629,294,812,761,244,894,26,272,466,856,537,42,622,330,947,114,772,103,554,77,334,757,824,968,562,589,61,280,358,78,467,844,95,30,741,715,303,201,502,892,937,360,599,555,702,807,816,669,226,683,230,704,200,902,989,817,477,453,32,498,783,296,499,417,496,91,241,207,138,487,769,916,632,627,835,762,804,289,158,532,390,450,705,820,24,420,357,45,471,133,516,363,718,228,743,796,127,626,86,572,585,821,71,140,190,876,428,176,647,679,883,560,320,215,561,841,994,285,717,676,552,965,198,456,574,845,336,260,356,220,825,224,98,955,536,531,16,225,374,380,332,993,186,727,442,866,864,426,170,35,799,486,321,897,172,662,290,441,625,298,18,559,838,833,102,491,15,889,39,515,299,596,381,115,110,465,576,497,369,898,112,681,23,54,511,73,219,533,2,494,255,404,488,36,415,129,699,151,513,106,270,94,563,951,582,328,650,853,661,480,461,346,610,111,654,256,44,534,606,934,818,395,197,505,239,193,396,88,674,481,553,387,811,767,476,431,905,12,545,672,5,399,908,449,865,474,557,478,714,789,707,199,609,590,421,709,33,885,246,548,354,851,472,325,379,121,800,489,615,287,163,56,670,430,519,867,251,675,291,879,556,621,339,808,558,603,954,211,3,297,801,698,786,803,148,923,401,194,147,160,50,293,237,920,979,928,300,904,252,362,60,209,370,997,547,604,377,156,977,130,763,458,607,273,435,586,427,778,164,909,66,684,987,969,433,598,195,802,686,703,436,910,982,946,843,995,600,21,855,550,361,846,648,745,57,187,583,408,753,544,53,155,438,389,454,308,873,100,364,410,725,341,754,271,895,890,685,167,756,815,263,63,960,457,689,794,983,267,165,216,448,862,67,400,526,171,688,281,189,202,886,695,827,944,849,333,922,694,437,712,405,366,331,311,746,541,826,139,1,940,571,345,752,388,470,941,988,657,180,413,564,432,318,386,918,58,104,780,528,863,871,857,306,538,633,693,8,233,214,738,797,352,880,782,834,125,183,740,367,643,616,640,728,324,305,327,439,710,384,635,126,283,984,204,870,406,575,795,134,179,149,624,317,402,823,407,736,668,152,525,192,766,411,839,493,617,376,750,831,144,373,861,284,691,403,261,618,452,25,927,963,529,906,706,996,587,90,245,340,601,154,514,484,775,713,637,117,701,132,116,677,656,881,157,938,730,700,645,81,649,973,911,429,793,288,711,69,729,893,765,716,653,737,510,443,278,146,213,777,191,665,302,837,173,926,961,247,874,391,664,975,546,234,593,854,451,959,914,142,719,162,82,310,623,872,455,208,884,153,521,523,277,108,218,13,540,614,249,235,92,970,859,143,503,275,236,504,878,135,34,957,444,371,836,385,418,37,943,696,980,630,460,925,522,813,912,731,254,416,512,322,259,517,759,945,274,929,978,483,59,232,566,506,935,355,663,266,323,89,507,974,41,122,141,84,620,469,913,628,877,9,597,485,673,742,188,159,962,595,579,652,365,335,169,658,43,605,359,594,680,612,543,409,642,840,150,527,569,981,998,348,636,882,580,382,10,490,781,992,423,999,75,342,768,860,51,262,747,184,398,619,530,119,97,76,83,964,592,128,276,350,210,279,282,482,301,602,899,93,440,986,697,269,682,520,976,414,634,79,304,221,744,4,776,295,660,68,671,900,375,930,887,810,52,760,238,185,732,830,565,953,343,425,46,869,22,27,641,62,349,785,549,307,313,773,919,931,338,771,393,316,888,735,651,850,875,805,177,203,268,581,326,353,72,790,779,971,6,48,764,394,966,231,814,372,948,175,613,265,462,315,666,720,145,584,792,891,500,136,722,109,55,990,87,85,123,991,847,915,196,20,459,492,397,842,535,739,434,939,47,829,80,292,932,113,774,131,64,14,806,852,734,958,787,508,118,667,424,174,28,690,124,419,378,588,253,182,178,19,468,952,344,749,917,950,896,314,726,644,120,539,687,7,65,942,858,96,463,921,577,243,446,258,631,212,832,286,659,798,445,967,509,473,70,524,337,518,819,464,784,751,723,347,758,568,168,495,222,107,567,692,206,985,205,29,608,312,611,17,351,949,907,848,501,721,40,791]","arrowleft","","","0","16","133","1000","[""0009_N1000_K0133_CLIQUE"",""0008_N1000_K0133_NOCLIQUE""]"
"","","","","","audio-keyboard-response","80","123058","0.0-64.0-0.0-1.0","","null","audio_feedback/shuffles/shuffle01.mp3","null","","","","","0","16","133","1000","[""0009_N1000_K0133_CLIQUE"",""0008_N1000_K0133_NOCLIQUE""]"
"","","","","","canvas-keyboard-response","81","126151","0.0-64.1-0.1-0.1","","1828","","arrowleft","[77,592,144,926,792,534,972,774,304,95,622,512,546,464,395,903,50,573,870,449,820,771,7,532,562,202,6,37,579,169,123,82,105,328,749,3,471,413,365,256,842,148,342,497,374,167,982,894,289,172,206,630,610,126,898,627,882,964,782,606,174,364,417,869,819,409,111,857,701,732,760,728,68,408,844,909,192,107,496,887,205,372,450,805,583,990,451,873,477,69,889,42,719,444,714,473,306,985,33,529,902,687,812,942,170,128,361,660,808,186,252,112,373,764,499,790,569,705,182,545,578,741,309,542,310,828,750,702,493,761,881,387,827,648,177,751,721,294,665,461,49,378,694,414,287,219,734,114,674,641,853,134,629,620,508,975,27,768,383,946,273,668,661,484,574,19,861,778,490,613,722,357,544,479,652,682,856,787,435,784,319,729,737,758,704,487,61,385,178,139,739,416,421,439,454,811,762,877,747,976,324,258,163,676,407,491,966,71,243,195,659,265,885,770,222,671,190,43,855,948,538,28,226,159,669,119,405,895,47,429,615,283,785,528,637,442,510,251,783,672,146,341,437,282,275,625,254,558,796,17,5,303,841,920,945,338,884,935,635,601,52,693,333,380,691,31,218,867,553,518,133,984,834,382,993,141,923,733,21,132,443,293,330,846,427,246,605,505,591,90,9,424,949,511,53,891,743,550,156,452,321,40,995,929,824,821,495,940,59,642,277,358,523,524,689,955,356,402,868,26,155,41,947,0,905,769,204,75,60,781,270,23,810,197,494,504,567,530,83,447,30,292,878,626,634,253,300,290,453,934,398,540,379,913,232,799,802,738,212,563,655,683,377,650,647,838,486,198,38,468,431,557,596,509,685,825,988,922,759,268,791,79,411,788,396,158,748,348,106,307,740,115,872,612,944,643,804,777,291,179,269,639,724,72,381,482,831,681,184,904,673,795,679,168,598,752,440,196,369,430,14,108,2,565,370,986,839,183,86,585,12,871,48,406,987,968,271,597,13,843,347,684,896,798,285,572,244,109,924,586,636,368,900,912,918,593,478,236,329,716,434,916,901,793,32,600,57,62,616,403,677,84,101,617,121,921,257,353,489,556,692,225,124,67,472,145,35,410,224,767,670,262,506,517,607,707,388,22,731,937,875,400,632,584,15,906,589,312,609,432,363,710,301,709,603,462,278,858,359,754,152,242,102,214,63,480,963,336,188,238,711,420,713,951,527,438,70,879,695,863,849,191,936,54,45,644,485,595,730,339,433,969,794,980,958,456,73,36,801,667,371,854,88,223,927,187,316,130,554,537,194,286,20,840,817,299,541,836,640,315,776,826,917,129,110,848,323,590,525,100,756,131,954,697,235,996,97,392,302,120,571,780,763,418,229,314,470,813,979,823,514,604,354,160,965,11,933,503,80,735,483,699,276,526,914,288,962,29,832,513,337,952,664,260,851,658,140,726,165,459,803,4,932,718,910,261,961,93,989,176,345,507,566,76,151,85,943,623,233,24,580,570,960,745,91,998,199,552,55,18,953,577,415,113,727,193,441,712,255,362,401,775,469,911,457,608,228,391,343,516,335,974,366,65,138,498,87,876,8,231,272,736,680,227,216,638,983,375,599,376,700,475,587,631,153,25,520,175,247,393,66,725,533,890,539,755,568,237,384,16,560,149,614,127,866,386,766,326,215,816,284,210,930,797,203,897,230,991,547,220,481,331,515,662,883,117,666,122,502,860,757,800,551,266,209,720,786,645,305,423,466,313,351,463,143,888,618,928,621,992,678,280,772,536,899,157,394,142,249,931,297,907,259,548,166,708,281,874,500,859,919,135,125,492,950,535,649,594,837,360,521,355,92,850,89,118,559,698,137,327,675,322,239,807,39,880,58,744,352,74,399,576,646,474,938,519,657,862,189,746,822,171,180,96,886,308,78,959,476,264,317,686,161,241,806,136,240,422,81,773,389,234,267,346,847,779,325,852,334,956,397,706,94,200,555,181,295,696,723,56,999,154,51,64,651,349,350,419,162,34,248,211,656,390,44,501,915,274,611,147,428,460,425,864,103,445,971,458,814,549,703,654,488,653,957,404,448,815,320,715,602,789,543,818,455,561,742,581,531,150,467,865,201,809,981,967,46,116,217,833,296,340,99,830,208,582,298,10,663,279,1,690,250,207,245,263,619,977,717,845,997,765,588,446,213,994,311,973,318,941,412,925,164,221,522,624,908,892,465,628,564,978,753,173,104,426,575,332,367,893,688,939,185,970,835,829,633,344,98,436]","arrowleft","","true","0","16","133","1000","[""0009_N1000_K0133_CLIQUE"",""0008_N1000_K0133_NOCLIQUE""]"
"","","","","","audio-keyboard-response","82","127138","0.0-64.1-0.1-1.1","","null","audio_feedback/right/coin01.mp3","null","","","","","0","16","133","1000","[""0009_N1000_K0133_CLIQUE"",""0008_N1000_K0133_NOCLIQUE""]"
"","","","","","canvas-keyboard-response","83","130028","0.0-65.0-0.0-0.0","","1661","","arrowright","[944,37,144,659,59,863,303,653,306,854,72,627,552,45,197,292,419,193,581,612,769,636,288,411,884,170,969,663,269,12,264,91,742,76,625,325,484,714,521,793,31,359,967,192,235,753,207,637,674,573,604,797,194,171,907,110,373,307,954,889,554,851,440,639,293,835,25,274,641,948,822,17,500,366,299,542,322,543,492,520,605,571,262,787,260,433,646,290,114,189,111,676,267,926,353,448,906,36,522,82,482,634,940,337,899,446,696,326,188,156,833,309,148,221,915,349,978,928,565,318,556,95,712,608,692,40,530,374,964,129,379,89,729,456,973,890,699,467,331,277,425,394,323,434,200,760,502,493,92,564,134,352,24,883,172,943,131,668,801,140,652,388,780,723,590,177,691,575,489,462,719,496,333,933,771,759,58,173,537,767,240,344,763,284,404,243,460,168,976,286,781,241,995,611,675,143,670,127,218,14,312,152,582,133,724,383,917,210,555,399,772,483,688,475,266,746,254,766,101,435,881,113,871,939,118,788,695,945,64,417,68,882,679,996,657,934,932,836,505,909,166,167,755,327,362,255,52,121,598,481,825,859,998,384,839,324,141,853,3,517,459,116,367,392,966,993,340,840,672,667,468,535,60,782,330,987,963,786,856,810,232,540,390,319,296,862,11,818,870,108,355,357,591,514,77,972,569,528,354,551,119,850,214,830,348,486,615,198,480,69,104,697,142,102,864,403,733,297,205,959,10,924,258,568,616,585,809,187,473,576,199,586,182,13,358,828,165,678,563,682,661,201,9,432,791,120,203,783,342,872,952,365,795,84,588,757,689,950,844,418,534,745,226,867,227,813,761,654,461,20,244,90,751,259,464,848,799,54,506,606,726,230,246,684,713,599,508,686,216,249,861,567,509,683,579,301,15,474,135,268,44,251,858,94,731,512,748,749,785,421,438,469,470,351,649,677,784,153,700,389,794,159,222,250,223,707,843,178,313,504,970,320,431,774,778,427,583,30,478,422,989,339,744,660,451,694,632,550,5,276,740,640,289,802,287,929,737,195,916,511,43,878,693,750,894,245,381,510,368,572,181,671,283,18,942,803,208,910,328,593,842,225,680,902,410,961,547,600,980,397,375,466,491,666,414,831,650,70,310,562,71,347,947,921,272,937,477,81,647,673,985,633,204,662,136,75,360,720,455,951,979,629,6,47,866,97,51,747,273,815,610,896,544,736,219,507,42,960,122,0,308,247,196,408,779,206,624,338,597,87,321,275,380,519,1,345,877,125,988,228,401,893,935,538,800,450,371,765,814,756,602,681,146,61,237,103,527,704,115,80,986,341,220,56,880,186,607,41,471,819,811,638,741,710,387,35,46,234,722,584,949,334,968,958,402,834,626,975,38,162,497,796,436,768,685,280,224,999,665,298,300,541,776,98,139,651,992,400,775,423,630,888,931,79,86,553,39,920,545,927,897,841,305,2,88,523,372,754,236,74,302,702,664,580,984,180,164,617,407,281,409,885,65,238,378,169,886,613,257,558,256,717,62,130,855,622,644,452,578,465,525,454,990,701,648,690,643,439,263,559,891,557,524,385,332,479,956,936,430,185,709,393,28,317,900,865,792,817,730,706,875,311,395,316,48,132,570,29,912,656,595,233,428,965,176,499,698,147,687,485,295,415,592,619,253,532,112,887,356,873,50,577,876,248,816,449,711,953,67,827,946,919,721,126,363,160,444,57,377,546,23,73,369,837,441,826,145,416,531,838,589,209,426,620,443,777,398,533,738,734,190,335,158,957,34,631,488,994,869,457,149,955,191,252,974,566,513,868,501,739,609,874,412,315,808,150,429,728,655,265,725,336,807,895,821,294,231,560,705,157,458,857,175,623,892,762,19,215,601,847,174,396,860,503,184,991,217,561,463,21,962,4,925,812,382,27,179,386,727,445,304,596,406,594,516,911,529,549,361,329,824,105,498,621,845,124,413,472,93,901,16,941,279,789,903,587,518,405,128,291,614,849,618,66,83,239,33,898,716,242,85,645,997,971,343,100,137,846,715,820,905,212,539,26,424,211,918,370,548,642,913,78,526,490,32,773,106,420,278,364,832,151,285,923,904,790,515,977,823,346,908,117,703,658,55,852,982,798,49,314,879,536,138,161,922,96,202,708,53,7,983,476,938,981,770,914,758,437,930,718,628,752,487,163,669,282,109,99,495,350,123,155,22,735,442,764,829,8,391,376,270,804,732,271,261,229,213,453,494,743,107,183,603,806,447,154,574,805,635,63]","arrowright","","true","0","17","133","1000","[""0070_N1000_K0133_NOCLIQUE"",""0030_N1000_K0133_CLIQUE""]"
"","","","","","audio-keyboard-response","84","131020","0.0-65.0-0.0-1.0","","null","audio_feedback/right/coin01.mp3","null","","","","","0","17","133","1000","[""0070_N1000_K0133_NOCLIQUE"",""0030_N1000_K0133_CLIQUE""]"
"","","","","","canvas-keyboard-response","85","137686","0.0-66.0-0.0-0.0","","5450","","arrowleft","[648,468,846,11,537,528,133,223,273,947,640,722,620,787,665,994,892,997,549,154,36,652,51,219,140,272,350,27,512,920,493,900,171,53,637,825,243,16,857,726,943,761,469,331,611,688,736,715,266,747,796,812,102,645,255,323,618,307,872,724,630,538,595,841,668,871,768,731,569,261,673,498,477,650,217,824,885,462,907,811,445,466,955,656,132,550,791,142,601,497,829,746,76,945,758,417,343,134,453,19,552,105,577,544,547,322,632,666,425,558,131,905,209,263,973,358,669,910,157,338,979,205,69,30,875,917,817,605,328,303,25,924,506,607,228,247,403,38,185,208,792,679,264,433,8,816,699,484,116,299,86,367,61,360,151,71,842,554,491,428,967,291,898,557,455,814,256,72,969,616,80,908,476,271,923,661,649,635,794,33,252,451,396,439,231,401,784,655,813,883,700,239,705,965,735,503,444,138,188,287,671,146,737,793,703,369,163,211,772,522,927,144,531,404,584,895,859,337,6,848,212,42,748,392,254,448,13,478,583,244,260,23,482,52,843,5,109,888,743,110,97,837,999,879,45,31,169,111,262,646,881,345,456,790,408,899,446,487,730,870,775,48,562,324,309,66,235,505,692,89,114,873,467,785,165,274,385,977,804,976,489,918,921,769,363,108,615,691,7,508,580,548,365,741,974,315,321,869,501,992,316,803,911,415,206,349,706,334,710,374,952,295,674,936,806,623,518,361,162,773,795,621,509,514,600,938,284,564,121,625,579,530,393,828,39,490,449,300,54,173,626,126,443,902,690,818,341,904,852,234,196,633,689,73,454,589,882,119,712,926,903,429,84,693,249,520,838,931,802,574,573,399,414,382,617,333,99,590,662,831,729,313,805,423,525,77,193,317,486,182,74,202,713,245,64,738,87,986,598,139,975,460,867,128,517,725,657,199,516,389,3,913,807,304,101,221,241,297,12,510,191,442,82,714,335,292,381,150,856,59,868,891,44,50,960,896,164,194,236,282,24,801,774,916,285,698,858,257,540,308,760,855,470,946,912,932,823,184,495,570,631,159,192,568,362,207,118,991,475,465,419,280,944,827,592,248,167,336,288,148,820,397,543,937,539,10,608,767,826,771,450,93,830,850,862,200,181,123,226,719,461,678,989,624,312,85,326,306,407,585,1,685,277,504,9,15,258,459,204,849,418,90,799,22,707,783,29,659,845,214,777,933,865,561,60,63,383,32,472,220,701,622,643,177,320,995,430,786,275,696,37,745,894,394,96,663,21,684,915,342,311,821,551,57,906,560,653,203,479,602,728,386,739,34,559,934,49,957,488,83,88,318,704,388,129,168,612,357,959,179,984,356,636,130,186,268,413,269,18,797,502,17,644,416,658,94,259,970,996,732,922,104,545,47,40,216,578,764,302,708,135,103,638,680,950,527,709,753,723,170,609,681,614,153,572,742,483,925,695,532,166,889,124,420,372,283,798,332,968,682,305,426,524,354,571,174,839,754,276,998,566,432,46,591,500,100,380,379,242,149,593,230,141,641,405,683,863,755,145,68,327,480,218,411,147,431,854,281,642,237,676,940,874,278,836,458,187,734,929,120,963,727,519,289,347,434,909,438,421,717,711,962,866,390,851,596,267,628,180,229,563,485,840,58,686,762,949,878,953,400,880,529,672,293,604,422,424,175,499,789,546,376,463,861,534,740,178,606,364,348,541,634,67,897,733,215,982,980,819,201,437,344,117,464,368,654,233,835,694,402,675,143,115,113,893,353,106,410,766,98,603,844,210,697,756,990,919,988,227,860,581,770,95,238,752,398,956,26,587,340,62,122,330,749,776,536,55,556,939,79,351,667,435,176,127,314,613,864,629,597,240,834,588,56,198,780,800,948,329,440,594,409,160,183,954,377,660,0,833,366,441,619,555,246,565,958,189,447,355,395,778,964,718,253,136,721,222,639,983,494,759,822,782,359,225,853,586,664,887,161,575,670,942,599,779,310,627,190,339,993,930,966,886,914,213,651,195,250,78,224,757,744,406,279,941,951,521,763,515,298,928,251,781,152,91,70,847,384,296,75,325,92,352,41,961,172,319,294,373,137,877,884,232,270,290,808,647,391,371,346,526,28,716,890,810,492,156,427,2,751,155,576,765,832,513,474,107,452,523,978,972,412,985,687,582,20,750,471,935,507,43,788,610,511,720,286,496,533,876,815,901,301,473,387,481,158,370,112,535,809,981,375,14,4,457,971,197,35,65,378,81,567,125,265,702,987,677,542,553,436]","arrowleft","","true","0","18","117","1000","[""0073_N1000_K0117_CLIQUE"",""0058_N1000_K0117_NOCLIQUE""]"
"","","","","","audio-keyboard-response","86","138680","0.0-66.0-0.0-1.0","","null","audio_feedback/right/coin01.mp3","null","","","","","0","18","117","1000","[""0073_N1000_K0117_CLIQUE"",""0058_N1000_K0117_NOCLIQUE""]"
