"success","timeout","failed_images","failed_audio","failed_video","trial_type","trial_index","time_elapsed","internal_node_id","view_history","rt","stimulus","response","nodes_order","correct_response","graphs_couple","accuracy","block_index","presentation_index","clique_size","graph_size","graphs_names"
"true","false","[]","[]","[]","preload","0","78","0.0-0.0","","","","","","","","","","","","",""
"","","","","","pavlovia","1","509","0.0-1.0","","","","","","","","","","","","",""
"","","","","","instructions","2","4475","0.0-2.0","[{""page_index"":0,""viewing_time"":2760},{""page_index"":1,""viewing_time"":1204}]","3964","","","","","","","","","","",""
"true","false","[]","[]","[]","preload","3","5228","0.0-3.0","","","","","","","","","","","","",""
"","","","","","instructions","4","17761","0.0-4.0","[{""page_index"":0,""viewing_time"":758},{""page_index"":1,""viewing_time"":385},{""page_index"":2,""viewing_time"":289},{""page_index"":3,""viewing_time"":272},{""page_index"":4,""viewing_time"":229},{""page_index"":5,""viewing_time"":245},{""page_index"":6,""viewing_time"":260},{""page_index"":7,""viewing_time"":262},{""page_index"":8,""viewing_time"":229},{""page_index"":9,""viewing_time"":223},{""page_index"":10,""viewing_time"":224},{""page_index"":11,""viewing_time"":236},{""page_index"":12,""viewing_time"":190},{""page_index"":13,""viewing_time"":215},{""page_index"":14,""viewing_time"":195},{""page_index"":15,""viewing_time"":197},{""page_index"":16,""viewing_time"":200},{""page_index"":17,""viewing_time"":184},{""page_index"":18,""viewing_time"":196},{""page_index"":19,""viewing_time"":195},{""page_index"":20,""viewing_time"":201},{""page_index"":21,""viewing_time"":202},{""page_index"":22,""viewing_time"":213},{""page_index"":23,""viewing_time"":215},{""page_index"":24,""viewing_time"":229},{""page_index"":25,""viewing_time"":212},{""page_index"":26,""viewing_time"":213},{""page_index"":27,""viewing_time"":219},{""page_index"":28,""viewing_time"":214},{""page_index"":29,""viewing_time"":220},{""page_index"":30,""viewing_time"":222},{""page_index"":31,""viewing_time"":231},{""page_index"":32,""viewing_time"":240},{""page_index"":33,""viewing_time"":226},{""page_index"":34,""viewing_time"":229},{""page_index"":35,""viewing_time"":223},{""page_index"":36,""viewing_time"":219},{""page_index"":37,""viewing_time"":211},{""page_index"":38,""viewing_time"":237},{""page_index"":39,""viewing_time"":264},{""page_index"":40,""viewing_time"":210},{""page_index"":41,""viewing_time"":223},{""page_index"":42,""viewing_time"":249},{""page_index"":43,""viewing_time"":258},{""page_index"":44,""viewing_time"":232},{""page_index"":45,""viewing_time"":246},{""page_index"":46,""viewing_time"":243},{""page_index"":47,""viewing_time"":258},{""page_index"":48,""viewing_time"":228},{""page_index"":49,""viewing_time"":213},{""page_index"":50,""viewing_time"":227},{""page_index"":51,""viewing_time"":323}]","12533","","","","","","","","","","",""
"","","","","","instructions","5","43052","0.0-5.0","[{""page_index"":0,""viewing_time"":25290}]","25290","","","","","","","","","","",""
"true","false","[]","[]","[]","preload","6","43422","0.0-6.0","","","","","","","","","","","","",""
"","","","","","image-keyboard-response","7","46175","0.0-7.0","","2752","tutorial/task_familiarization_images/part 1/01_N160_K90_cliqueRight_question1.PNG"," ","","","","","","","","",""
"","","","","","image-keyboard-response","8","46827","0.0-8.0","","651","tutorial/task_familiarization_images/part 1/02_N160_K90_cliqueRight_question2.PNG"," ","","","","","","","","",""
"","","","","","image-keyboard-response","9","47972","0.0-9.0","","1145","tutorial/task_familiarization_images/part 1/03_N160_K90_cliqueRight_question3.PNG","arrowright","","","","","","","","",""
"","","","","","image-keyboard-response","10","48969","0.0-10.0","","995","tutorial/task_familiarization_images/part 1/04_N160_K90_cliqueRight_solution.PNG"," ","","","","","","","","",""
"","","","","","image-keyboard-response","11","49770","0.0-11.0","","799","tutorial/task_familiarization_images/part 1/05_N160_K65_cliqueRight_question1.PNG"," ","","","","","","","","",""
"","","","","","image-keyboard-response","12","49983","0.0-12.0","","212","tutorial/task_familiarization_images/part 1/06_N160_K65_cliqueRight_question2.PNG"," ","","","","","","","","",""
"","","","","","image-keyboard-response","13","50660","0.0-13.0","","675","tutorial/task_familiarization_images/part 1/07_N160_K65_cliqueRight_question3.PNG","arrowright","","","","","","","","",""
"","","","","","image-keyboard-response","14","51096","0.0-14.0","","435","tutorial/task_familiarization_images/part 1/08_N160_K65_cliqueRight_solution.PNG"," ","","","","","","","","",""
"","","","","","image-keyboard-response","15","51355","0.0-15.0","","259","tutorial/task_familiarization_images/part 1/09_N160_K50_cliqueLeft_question1.PNG"," ","","","","","","","","",""
"","","","","","image-keyboard-response","16","51563","0.0-16.0","","207","tutorial/task_familiarization_images/part 1/10_N160_K50_cliqueLeft_question2.PNG"," ","","","","","","","","",""
"","","","","","image-keyboard-response","17","52921","0.0-17.0","","1356","tutorial/task_familiarization_images/part 1/11_N160_K50_cliqueLeft_question3.PNG","arrowright","","","","","","","","",""
"","","","","","image-keyboard-response","18","53775","0.0-18.0","","853","tutorial/task_familiarization_images/part 1/12_N160_K50_cliqueLeft_solution.PNG"," ","","","","","","","","",""
"","","","","","image-keyboard-response","19","54062","0.0-19.0","","284","tutorial/task_familiarization_images/part 1/13_N160_K80_cliqueLeft_question1.PNG"," ","","","","","","","","",""
"","","","","","image-keyboard-response","20","54381","0.0-20.0","","317","tutorial/task_familiarization_images/part 1/14_N160_K80_cliqueLeft_question2.PNG"," ","","","","","","","","",""
"","","","","","image-keyboard-response","21","54931","0.0-21.0","","549","tutorial/task_familiarization_images/part 1/15_N160_K80_cliqueLeft_question3.PNG","arrowleft","","","","","","","","",""
"","","","","","image-keyboard-response","22","55376","0.0-22.0","","444","tutorial/task_familiarization_images/part 1/16_N160_K80_cliqueLeft_solution.PNG"," ","","","","","","","","",""
"","","","","","image-keyboard-response","23","55687","0.0-23.0","","310","tutorial/task_familiarization_images/part 1/17_N160_K40_cliqueRight_question1.PNG"," ","","","","","","","","",""
"","","","","","image-keyboard-response","24","55946","0.0-24.0","","258","tutorial/task_familiarization_images/part 1/18_N160_K40_cliqueRight_question2.PNG"," ","","","","","","","","",""
"","","","","","image-keyboard-response","25","57146","0.0-25.0","","1199","tutorial/task_familiarization_images/part 1/19_N160_K40_cliqueRight_question3.PNG","arrowright","","","","","","","","",""
"","","","","","image-keyboard-response","26","57988","0.0-26.0","","841","tutorial/task_familiarization_images/part 1/20_N160_K40_cliqueRight_solution.PNG"," ","","","","","","","","",""
"","","","","","image-keyboard-response","27","58758","0.0-27.0","","769","tutorial/task_familiarization_images/part 1/21_N160_K70_cliqueLeft_question1.PNG"," ","","","","","","","","",""
"","","","","","image-keyboard-response","28","58997","0.0-28.0","","238","tutorial/task_familiarization_images/part 1/22_N160_K70_cliqueLeft_question2.PNG"," ","","","","","","","","",""
"","","","","","image-keyboard-response","29","59587","0.0-29.0","","589","tutorial/task_familiarization_images/part 1/23_N160_K70_cliqueLeft_question3.PNG","arrowleft","","","","","","","","",""
"","","","","","image-keyboard-response","30","60229","0.0-30.0","","641","tutorial/task_familiarization_images/part 1/24_N160_K70_cliqueLeft_solution.PNG"," ","","","","","","","","",""
"true","false","[]","[]","[]","preload","31","60491","0.0-31.0","","","","","","","","","","","","",""
"","","","","","image-keyboard-response","32","68564","0.0-32.0","","8073","tutorial/task_familiarization_images/part 2/01_160_80_cliqueLeft_withFeedback_1.PNG"," ","","","","","","","","",""
"","","","","","image-keyboard-response","33","69418","0.0-33.0","","849","tutorial/task_familiarization_images/part 2/02_160_80_cliqueLeft_withFeedback_1.PNG"," ","","","","","","","","",""
"","","","","","image-keyboard-response","34","70530","0.0-34.0","","1111","tutorial/task_familiarization_images/part 2/03_160_80_cliqueLeft_withFeedback_3.PNG","arrowleft","","","","","","","","",""
"","","","","","image-keyboard-response","35","71367","0.0-35.0","","835","tutorial/task_familiarization_images/part 2/04_160_80_cliqueLeft_withFeedback_correct.PNG"," ","","","","","","","","",""
"","","","","","image-keyboard-response","36","72903","0.0-36.0","","1535","tutorial/task_familiarization_images/part 2/05_160_55_cliqueRight_withFeedback_1.PNG"," ","","","","","","","","",""
"","","","","","image-keyboard-response","37","73127","0.0-37.0","","222","tutorial/task_familiarization_images/part 2/06_160_55_cliqueRight_withFeedback_2.PNG"," ","","","","","","","","",""
"","","","","","image-keyboard-response","38","73718","0.0-38.0","","590","tutorial/task_familiarization_images/part 2/07_160_55_cliqueRight_withFeedback_3.PNG","arrowright","","","","","","","","",""
"","","","","","image-keyboard-response","39","74318","0.0-39.0","","598","tutorial/task_familiarization_images/part 2/08_160_55_cliqueRight_withFeedback_correct.PNG"," ","","","","","","","","",""
"","","","","","image-keyboard-response","40","74557","0.0-40.0","","238","tutorial/task_familiarization_images/part 2/09_160_70_cliqueLeft_withFeedback_1.PNG"," ","","","","","","","","",""
"","","","","","image-keyboard-response","41","74790","0.0-41.0","","230","tutorial/task_familiarization_images/part 2/10_160_70_cliqueLeft_withFeedback_2.PNG"," ","","","","","","","","",""
"","","","","","image-keyboard-response","42","75322","0.0-42.0","","530","tutorial/task_familiarization_images/part 2/11_160_70_cliqueLeft_withFeedback_3.PNG","arrowleft","","","","","","","","",""
"","","","","","image-keyboard-response","43","75784","0.0-43.0","","462","tutorial/task_familiarization_images/part 2/12_160_70_cliqueLeft_withFeedback_correct.PNG"," ","","","","","","","","",""
"","","","","","survey-html-form","44","82081","0.0-44.0","","6296","","{""gender"":""female"",""age"":""27""}","","","","","","","","",""
"","","","","","instructions","45","84072","0.0-45.0","[{""page_index"":0,""viewing_time"":1990}]","1990","","","","","","","","","","",""
"true","","","","","fullscreen","46","86314","0.0-47.0","","","","","","","","","","","","",""
"","","","","","canvas-keyboard-response","47","89870","0.0-48.0-0.0-0.0","","2753","","arrowleft","[84,59,379,981,677,521,477,863,500,554,836,34,877,664,466,340,966,17,450,205,204,13,792,40,115,648,969,106,931,424,709,960,324,951,76,667,517,107,738,867,740,457,695,39,666,191,337,242,472,523,712,451,954,728,259,983,621,801,20,186,458,611,243,287,511,563,924,802,142,336,141,459,198,869,844,406,388,610,323,14,861,353,520,800,464,549,318,536,427,363,297,139,233,378,97,94,932,85,947,564,914,533,300,579,955,37,552,293,761,499,550,890,327,623,169,510,412,880,562,384,752,401,134,945,117,584,965,445,161,99,266,976,641,230,153,131,475,697,875,501,772,851,739,922,439,959,389,547,138,45,328,396,284,251,779,199,734,691,809,763,764,102,93,436,993,539,413,486,144,262,338,212,938,441,147,449,494,582,545,899,989,137,375,933,157,884,503,626,793,705,659,558,658,576,489,343,442,398,332,47,982,16,515,532,495,498,715,151,252,963,166,598,956,718,214,731,121,946,103,239,848,435,79,140,9,370,154,843,685,36,202,56,794,775,620,849,651,448,639,136,310,781,126,581,644,423,224,736,612,285,916,432,347,438,306,992,377,948,221,352,208,194,128,964,940,257,77,270,928,409,108,529,514,897,706,758,397,419,588,41,381,22,600,786,207,607,807,788,936,594,865,348,390,294,228,391,57,302,331,553,496,171,366,537,428,889,454,175,482,678,10,906,315,789,367,229,447,92,265,254,152,693,187,942,606,930,250,535,628,274,431,264,52,893,480,180,798,519,998,365,485,754,871,531,566,745,275,808,476,765,411,782,234,3,244,508,456,778,756,292,87,360,622,444,172,184,633,127,469,118,277,67,571,267,735,179,898,987,505,827,216,305,111,146,811,642,395,25,909,823,837,120,368,18,953,463,308,640,687,124,461,804,245,361,420,165,182,402,530,298,487,768,309,63,774,885,661,213,759,288,674,185,669,33,647,716,845,193,75,71,817,787,325,618,949,923,920,206,961,222,0,19,997,319,814,797,874,452,493,468,643,753,662,455,904,236,980,356,815,374,841,604,713,929,888,46,50,417,135,860,1,737,707,744,649,676,394,86,711,791,60,634,364,903,732,313,357,280,894,68,918,29,962,919,422,192,376,698,48,81,2,593,572,317,818,143,690,970,524,805,303,730,502,69,573,975,64,168,167,757,246,183,116,907,630,339,729,382,886,65,973,177,248,855,112,795,614,174,852,290,7,876,220,528,703,416,569,878,872,974,776,927,995,870,616,895,471,5,967,415,979,235,686,372,675,42,163,491,770,688,399,654,437,663,670,299,985,27,652,286,668,6,513,556,387,543,565,227,944,828,746,110,358,453,150,446,603,682,574,796,727,766,28,790,51,38,345,462,926,488,783,925,344,11,362,145,785,333,999,575,188,560,812,156,479,58,83,830,799,283,887,724,534,62,129,465,32,726,497,941,673,704,810,838,710,771,806,473,271,296,862,859,702,891,882,272,762,596,868,209,657,591,240,516,722,223,160,608,548,996,625,856,780,61,720,522,478,418,840,900,123,74,44,132,371,542,627,679,755,181,226,149,653,104,373,434,902,429,43,589,873,555,525,55,743,605,321,316,125,4,196,190,253,629,650,857,741,968,109,23,977,386,561,369,256,320,700,53,559,803,825,984,210,714,660,155,701,684,913,694,599,821,777,91,631,258,883,217,829,719,334,645,853,392,30,751,767,917,26,683,656,822,921,846,460,541,854,440,733,972,269,90,341,597,939,162,580,813,101,276,819,958,784,426,538,78,215,278,467,201,725,314,49,637,896,504,70,492,380,824,301,170,393,349,282,950,646,322,506,21,421,414,842,307,66,699,773,613,832,526,279,261,601,820,12,98,273,35,570,935,592,189,197,585,407,835,249,655,557,342,587,72,834,864,312,912,748,82,238,88,295,578,359,619,568,405,635,400,901,567,203,866,289,159,723,24,481,826,952,978,346,636,915,971,988,335,590,721,879,672,241,934,178,881,114,507,717,430,329,490,404,291,681,689,105,130,176,615,990,831,638,263,122,385,8,89,750,527,173,769,544,218,304,425,350,73,847,858,119,255,839,943,311,237,164,586,833,403,330,696,281,665,383,760,410,991,219,749,351,546,326,937,158,260,474,850,905,408,816,957,624,583,433,200,986,509,148,747,211,602,484,577,595,680,54,225,96,80,518,512,551,232,910,95,671,443,231,911,355,692,742,195,470,15,908,133,609,268,113,708,100,892,247,483,994,31,617,632,354,540]","arrowleft","","true","0","0","300","1000","[""0079_N1000_K0300_CLIQUE"",""0040_N1000_K0300_NOCLIQUE""]"
"","","","","","audio-keyboard-response","48","91094","0.0-48.0-0.0-1.0","","null","audio_feedback/right/coin01.mp3","null","","","","","0","0","300","1000","[""0079_N1000_K0300_CLIQUE"",""0040_N1000_K0300_NOCLIQUE""]"
"","","","","","canvas-keyboard-response","49","93252","0.0-49.0-0.0-0.0","","1396","","arrowleft","[65,486,549,712,257,399,562,824,34,915,474,402,885,652,300,860,191,963,307,468,689,624,630,36,878,119,210,294,302,843,106,995,297,319,73,670,886,534,142,87,861,103,761,327,509,700,435,877,115,470,981,351,225,55,387,666,186,638,201,369,482,749,506,100,362,416,185,374,133,863,548,438,616,511,463,641,60,50,720,246,997,991,776,12,731,864,208,29,184,455,908,356,353,809,573,1,565,852,193,623,445,70,331,665,6,838,384,555,979,554,311,373,659,515,473,322,741,150,626,457,875,933,883,77,587,47,701,764,207,693,370,880,559,458,940,84,424,879,217,695,256,676,354,698,475,91,768,976,292,364,110,541,450,223,228,177,952,213,961,123,517,288,914,282,61,812,736,512,855,3,472,432,950,922,80,998,959,344,337,901,923,876,93,52,774,604,844,965,784,444,86,583,660,818,151,680,678,850,168,275,907,0,942,32,564,202,710,576,244,398,967,949,921,794,393,928,200,690,669,897,557,884,447,869,295,664,49,342,859,527,11,131,112,947,469,429,230,355,983,264,765,994,941,332,273,797,449,381,580,635,206,365,927,236,840,41,831,833,69,199,341,423,165,704,561,751,189,566,340,45,990,589,488,746,588,607,934,819,732,909,662,97,836,837,274,293,529,152,314,881,128,866,420,575,266,126,400,757,648,349,971,821,845,495,622,663,502,40,865,526,478,945,708,820,169,510,306,490,271,633,26,743,747,404,642,651,430,958,621,563,161,371,411,454,987,770,174,487,598,421,538,640,692,325,67,735,851,305,734,367,772,467,417,121,745,498,513,686,606,674,550,804,931,218,985,783,4,815,484,35,702,801,493,601,713,59,317,324,124,925,756,485,787,261,570,672,291,888,443,800,249,762,92,24,53,270,232,320,532,137,956,918,8,160,180,786,448,162,802,500,769,251,951,597,375,975,290,938,814,88,334,556,617,452,523,782,657,647,179,501,631,832,62,537,102,204,428,893,418,560,788,415,650,992,636,816,681,13,667,585,171,661,195,796,46,107,483,521,234,254,904,494,803,913,258,730,386,321,618,187,30,973,451,214,542,937,964,525,842,605,871,358,466,396,477,834,16,970,924,85,972,132,491,359,944,394,263,591,318,226,440,19,960,459,284,966,553,181,806,99,405,492,503,310,434,156,78,372,777,38,728,524,707,545,830,795,578,361,874,793,813,426,231,943,754,54,42,48,753,780,248,229,154,726,727,143,76,163,79,682,241,287,817,790,401,858,145,867,738,654,269,675,763,936,56,685,437,540,625,397,312,628,272,471,335,410,581,841,74,203,895,192,705,917,999,25,194,28,953,634,350,935,872,504,620,95,827,289,117,376,609,89,986,347,385,242,135,441,391,276,543,932,489,409,887,352,639,333,825,627,20,939,916,71,224,146,518,946,781,742,722,846,894,346,58,235,285,568,744,579,339,993,643,792,862,582,798,433,116,114,111,552,17,671,870,577,170,153,592,419,649,283,572,807,83,243,903,539,10,567,378,767,496,632,911,771,962,619,15,301,569,733,715,900,279,507,533,31,130,957,395,94,808,96,44,196,899,758,439,898,571,892,629,68,687,2,403,902,811,215,688,791,714,826,383,178,773,221,286,596,338,277,39,778,360,21,363,329,413,392,530,760,988,442,425,668,377,716,173,706,848,610,984,5,259,729,829,849,828,422,608,595,906,600,57,823,159,388,703,857,799,779,209,853,118,835,684,655,912,481,673,389,253,789,313,721,98,514,245,51,105,414,547,380,724,255,464,136,699,709,129,390,930,868,653,90,839,644,978,499,725,574,645,522,205,905,586,357,593,740,220,72,717,382,519,412,9,982,658,926,166,407,250,750,479,33,281,476,996,158,497,711,304,296,453,237,694,82,528,233,147,148,847,260,520,366,104,265,551,614,252,183,613,737,723,64,406,929,719,954,345,646,590,175,611,920,766,328,113,752,696,516,873,465,309,546,278,697,167,379,462,155,431,108,718,81,18,558,63,149,198,968,603,14,896,326,584,27,948,890,508,974,134,436,182,856,343,212,368,536,531,480,759,268,461,955,211,267,144,303,75,109,977,739,120,188,127,22,299,683,138,139,336,176,891,755,637,456,889,298,544,315,822,594,190,141,535,140,980,612,460,330,23,197,677,66,919,910,125,222,969,602,43,615,164,227,101,805,247,656,157,7,785,691,172,989,238,240,810,348,219,262,323,505,854,239,216,122,679,37,308,748,775,316,599,446,408,882,427,280]","arrowleft","","true","0","1","300","1000","[""0063_N1000_K0300_CLIQUE"",""0005_N1000_K0300_NOCLIQUE""]"
"","","","","","audio-keyboard-response","50","94253","0.0-49.0-0.0-1.0","","null","audio_feedback/right/coin01.mp3","null","","","","","0","1","300","1000","[""0063_N1000_K0300_CLIQUE"",""0005_N1000_K0300_NOCLIQUE""]"
"","","","","","canvas-keyboard-response","51","95643","0.0-50.0-0.0-0.0","","704","","arrowleft","[617,874,587,991,415,22,127,553,492,778,394,819,673,600,496,855,900,356,187,942,363,220,585,291,503,927,219,922,977,993,497,233,357,627,304,111,850,437,88,121,763,173,856,292,682,125,869,941,102,774,943,984,748,657,595,948,522,94,632,263,82,541,472,662,23,752,234,189,773,666,153,144,839,185,788,343,690,433,18,904,722,259,974,190,324,50,416,244,133,701,709,12,753,229,908,217,705,37,87,971,732,536,138,702,700,341,721,897,328,818,887,875,729,9,983,443,20,558,694,389,873,626,141,985,530,175,266,866,740,937,45,47,965,851,655,365,478,868,335,40,803,691,648,245,381,602,32,349,280,742,678,772,628,630,520,916,886,689,408,723,799,642,589,86,619,540,938,320,4,396,525,531,149,362,629,225,65,31,454,841,765,74,575,249,644,406,508,833,785,429,591,268,364,35,162,936,811,312,457,26,334,19,760,301,847,199,275,646,258,336,707,194,455,466,440,995,430,518,624,329,152,130,777,407,728,605,431,829,712,543,2,262,715,14,975,822,446,797,419,614,450,634,792,544,308,932,621,571,374,964,38,706,502,759,330,883,870,963,135,192,780,733,767,766,467,395,511,71,660,418,872,703,532,380,69,757,743,60,230,278,838,552,338,161,545,422,277,288,123,758,46,297,179,64,359,373,98,236,115,186,382,316,555,652,924,976,79,151,353,852,323,57,391,116,739,821,566,668,594,577,590,824,439,919,476,271,321,124,686,379,879,516,969,193,27,460,322,620,216,556,539,500,253,119,568,893,517,592,400,311,171,300,122,449,344,25,812,720,303,243,313,201,579,959,562,926,126,956,274,314,214,674,892,794,952,509,738,150,615,444,781,597,726,485,282,761,67,176,805,716,928,403,631,110,813,844,174,946,834,528,559,612,36,480,209,397,181,386,650,139,931,677,907,945,903,453,264,108,549,227,56,223,167,354,137,97,802,504,914,557,228,470,640,837,247,730,972,318,129,671,658,659,434,636,452,664,685,836,826,286,96,70,656,653,48,218,565,421,817,998,482,61,609,514,417,231,235,981,909,340,366,89,554,269,561,567,232,725,401,954,475,580,426,148,501,569,576,142,607,240,76,13,741,859,145,107,672,95,388,332,204,563,131,215,54,7,654,747,367,538,610,665,28,582,52,447,459,372,413,106,358,53,445,146,885,337,376,912,845,572,8,276,808,523,471,90,505,281,242,203,790,988,254,100,226,966,877,979,188,432,333,611,921,598,348,66,342,588,710,93,213,456,347,21,814,369,950,399,208,867,113,239,257,331,164,222,378,77,212,1,994,957,11,279,603,810,787,474,346,670,643,350,910,800,172,255,599,661,744,375,806,295,169,224,695,888,925,489,519,310,905,63,698,513,166,101,155,755,687,746,385,136,953,246,384,425,285,596,238,704,104,749,764,84,762,435,876,825,51,43,697,719,118,601,786,663,669,842,469,848,913,512,527,252,178,718,970,180,944,481,708,795,992,283,241,182,771,583,735,862,622,783,207,309,170,163,586,351,880,195,962,820,39,299,882,41,59,889,625,638,361,211,861,967,302,560,542,651,828,929,578,260,906,980,411,377,273,793,284,990,951,934,191,564,33,713,370,75,42,81,198,939,731,574,427,147,465,987,183,996,639,940,177,62,296,960,448,681,714,623,483,884,864,679,667,784,899,840,83,633,117,487,745,250,206,997,801,593,727,326,49,860,105,420,494,535,414,982,898,290,754,488,458,402,890,390,441,949,409,143,616,368,551,791,134,804,15,641,896,270,999,521,327,140,613,506,645,360,256,468,978,881,947,371,537,809,526,499,196,923,398,412,436,197,968,901,955,132,858,473,261,325,392,0,55,29,570,573,973,915,404,112,339,548,830,734,635,507,159,462,205,649,724,920,461,91,750,17,789,853,751,156,807,827,68,306,835,529,451,24,769,680,584,637,114,878,428,546,961,221,547,158,857,128,510,307,736,618,676,533,782,73,498,423,816,699,184,383,581,717,871,16,550,405,387,779,608,154,604,442,78,80,711,345,989,776,486,832,424,515,267,202,930,44,464,438,796,289,865,477,294,490,272,298,6,696,692,775,103,854,393,823,683,918,647,894,210,815,606,317,305,165,85,917,251,355,831,92,902,157,798,684,770,933,34,863,891,737,524,911,58,160,495,109,200,849,99,895,410,168,248,352,484,843,768,319,756,958,693,120,986,237,287,72,265,935,491,315,493,479,846,534,675,688,3,30,5,10,463,293]","arrowleft","","true","0","2","267","1000","[""0018_N1000_K0267_CLIQUE"",""0083_N1000_K0267_NOCLIQUE""]"
"","","","","","audio-keyboard-response","52","96633","0.0-50.0-0.0-1.0","","null","audio_feedback/right/coin01.mp3","null","","","","","0","2","267","1000","[""0018_N1000_K0267_CLIQUE"",""0083_N1000_K0267_NOCLIQUE""]"
"","","","","","canvas-keyboard-response","53","97949","0.0-51.0-0.0-0.0","","634","","arrowright","[962,214,206,309,726,327,896,209,82,361,486,798,78,67,870,302,75,268,364,385,749,597,638,2,709,253,495,734,71,532,689,660,831,632,985,717,499,86,731,599,41,992,899,993,265,577,531,5,672,267,954,789,707,89,481,888,493,305,921,424,23,967,865,470,793,232,889,120,277,497,760,271,44,39,204,607,821,224,133,297,654,504,322,938,741,740,671,662,840,185,288,145,756,580,354,526,139,775,944,827,228,149,817,856,901,711,437,406,636,7,335,585,637,92,398,679,472,195,14,614,569,51,714,296,987,659,396,66,111,62,552,528,412,356,8,55,490,729,536,872,225,435,884,158,650,146,518,785,452,639,256,284,160,261,349,181,367,500,474,91,59,910,879,343,556,635,348,541,841,908,853,502,565,143,781,112,68,753,242,104,9,152,175,973,935,796,79,488,790,407,763,281,551,589,739,611,198,838,405,959,463,795,922,752,446,947,345,54,342,176,905,38,64,324,826,602,519,755,478,199,716,200,970,550,996,605,843,834,587,276,700,164,520,508,53,874,754,598,319,979,927,544,530,629,948,411,266,916,498,627,272,633,567,12,774,776,667,257,521,115,579,351,216,318,545,593,320,458,80,657,625,391,661,977,301,174,434,736,750,98,998,418,431,918,849,930,885,317,289,390,192,828,81,314,359,503,839,564,47,847,173,744,974,368,211,976,48,408,875,770,346,337,527,249,353,586,630,168,194,21,27,454,189,600,339,570,151,604,641,179,697,652,262,325,542,651,236,370,693,483,457,619,171,401,669,512,646,975,762,746,978,623,617,404,96,182,136,448,546,522,558,768,455,771,665,694,803,573,704,732,705,380,461,306,32,341,97,426,428,30,226,612,33,715,290,223,321,387,20,415,964,131,438,347,608,642,357,988,40,235,582,676,780,664,601,237,945,751,338,477,873,485,581,850,825,854,822,733,718,205,816,806,832,957,699,73,890,951,915,858,197,25,22,845,894,724,213,118,234,578,606,994,943,229,805,800,663,902,533,484,801,17,57,119,965,433,811,509,931,19,984,416,286,685,761,814,275,177,293,445,808,747,270,883,383,245,167,675,193,562,36,912,961,596,549,246,784,950,153,626,238,487,725,389,392,946,207,844,170,417,743,534,77,698,681,350,772,501,568,674,141,678,3,215,655,583,909,609,150,895,475,688,644,737,144,999,231,107,84,757,818,332,823,553,16,937,782,799,239,147,429,121,543,786,928,819,940,365,548,427,812,413,379,621,877,255,15,766,684,292,169,903,352,969,640,815,117,557,70,142,728,758,264,680,563,240,196,878,911,489,966,513,414,647,191,56,166,273,997,867,328,114,802,963,212,893,692,923,837,456,925,791,462,846,382,807,764,919,900,43,713,188,299,643,222,217,326,127,128,163,386,511,907,482,247,72,6,848,110,622,422,788,628,721,983,308,829,63,624,773,517,230,410,334,184,708,645,172,49,282,571,759,572,989,269,575,594,371,859,103,298,122,656,809,465,155,88,864,765,868,535,566,748,467,555,469,824,668,523,76,178,233,701,124,592,863,631,479,590,388,126,735,323,687,480,460,138,842,730,515,162,243,706,260,972,58,221,453,312,220,156,683,767,615,300,123,165,869,187,18,74,876,61,94,783,384,514,787,227,682,69,898,190,439,574,159,397,539,450,148,658,941,330,703,449,399,440,447,980,949,202,920,468,311,722,649,995,677,310,710,395,554,333,833,35,423,83,836,852,134,459,116,933,953,210,208,274,855,666,952,559,769,494,471,291,372,507,588,373,742,105,154,820,263,871,258,295,394,887,595,939,610,813,375,336,283,653,218,810,331,971,344,329,942,745,603,443,956,219,100,576,934,777,360,316,510,376,420,125,400,696,421,402,34,430,10,560,85,892,591,106,955,968,540,259,403,280,99,613,981,616,982,26,505,241,537,861,369,792,87,425,132,891,720,702,285,102,634,917,778,506,287,244,723,28,340,804,913,547,254,304,42,860,29,129,1,374,250,797,686,926,991,137,880,851,201,362,727,13,65,315,882,620,719,101,355,113,496,45,524,161,673,958,584,451,108,50,24,307,886,279,252,476,135,95,924,0,794,180,419,52,914,358,695,90,294,248,130,986,690,473,157,409,464,881,278,835,186,183,31,906,857,779,648,4,491,203,432,712,561,366,393,46,904,381,378,932,442,738,538,960,11,363,529,303,140,929,670,516,93,377,897,830,466,618,862,525,60,37,691,866,251,936,492,990,441,313,444,436,109]","arrowright","","true","0","3","267","1000","[""0067_N1000_K0267_NOCLIQUE"",""0087_N1000_K0267_CLIQUE""]"
"","","","","","audio-keyboard-response","54","98933","0.0-51.0-0.0-1.0","","null","audio_feedback/right/coin01.mp3","null","","","","","0","3","267","1000","[""0067_N1000_K0267_NOCLIQUE"",""0087_N1000_K0267_CLIQUE""]"
"","","","","","canvas-keyboard-response","55","100255","0.0-52.0-0.0-0.0","","560","","arrowright","[999,553,35,770,448,256,718,848,363,673,273,586,808,903,163,545,601,54,393,412,166,171,234,849,501,326,546,444,565,599,482,967,392,874,53,11,713,558,449,567,280,165,646,123,589,560,216,828,131,97,27,22,582,424,575,114,159,503,870,309,410,578,119,476,730,663,160,707,890,473,789,415,356,809,820,91,621,875,432,378,430,34,355,819,842,816,705,4,683,230,9,63,236,233,614,929,997,881,248,677,17,993,562,395,489,351,357,254,893,824,988,260,991,595,68,641,275,957,474,261,577,981,655,651,803,300,867,197,103,434,185,837,549,414,196,908,539,823,477,951,111,815,670,237,207,983,732,136,632,744,918,624,783,215,66,77,28,994,650,989,832,263,205,896,494,603,292,56,167,935,231,304,638,475,102,642,258,891,954,61,178,862,324,518,151,397,447,249,717,255,80,971,213,504,813,295,382,418,364,764,901,759,379,656,431,942,226,143,214,653,675,857,95,422,388,384,958,839,381,860,413,800,701,795,765,961,551,137,797,888,64,283,467,128,65,710,264,442,428,337,252,685,703,841,661,72,535,14,286,490,519,584,654,129,188,905,880,117,836,405,154,509,124,383,594,38,343,336,570,116,41,88,679,818,725,239,464,817,423,86,884,365,98,219,635,328,883,127,741,899,37,10,469,232,20,299,602,616,871,998,923,315,850,461,667,676,45,854,400,933,604,909,949,590,108,672,633,130,23,506,914,766,522,694,168,781,866,921,986,876,856,96,247,886,734,542,157,441,943,121,71,529,928,910,199,793,84,262,182,483,94,491,698,12,768,913,305,834,623,666,555,902,688,811,948,680,844,411,995,335,544,346,184,619,576,630,736,390,149,101,639,640,403,141,181,359,345,885,748,648,786,173,32,480,777,344,990,613,514,301,133,643,940,682,150,580,406,593,429,225,532,348,172,708,87,938,898,241,742,49,984,438,453,920,354,120,115,869,972,941,810,796,221,882,368,960,738,879,606,50,332,24,497,107,953,757,973,327,93,731,579,0,488,99,106,743,2,398,617,538,187,192,712,745,872,435,959,164,308,82,5,210,81,517,573,339,840,790,291,268,13,92,496,391,313,548,421,749,627,31,807,112,678,963,470,733,433,481,314,450,373,855,44,267,110,471,773,257,600,6,523,833,779,389,132,426,307,240,318,863,821,755,440,658,978,516,827,557,238,615,525,778,46,625,801,559,609,536,298,853,700,118,684,847,719,460,367,303,791,721,965,659,39,297,564,360,873,457,402,596,878,8,729,792,427,693,375,812,530,966,266,631,452,574,769,571,439,581,524,79,83,203,634,561,228,831,669,500,934,762,917,826,887,287,956,217,190,147,484,425,386,419,465,176,454,177,939,36,649,243,716,55,15,70,306,47,142,608,462,845,492,126,288,463,100,799,665,486,146,338,979,29,235,964,727,349,498,657,696,637,341,57,689,534,443,664,90,58,674,930,493,322,183,907,211,511,597,772,692,285,980,618,40,814,507,223,385,550,145,451,60,396,987,153,162,85,271,366,704,407,787,194,269,48,726,138,208,371,251,931,222,376,612,374,802,660,563,468,139,340,152,502,611,652,804,739,220,895,436,278,587,320,747,598,585,912,281,515,715,276,520,394,189,554,18,352,751,647,806,74,1,311,760,69,591,605,253,333,109,274,59,767,622,947,408,317,528,521,735,699,864,691,179,945,746,104,543,774,944,709,186,416,174,161,829,445,937,455,858,671,628,204,846,992,975,21,175,592,73,547,756,3,265,636,911,259,76,437,135,370,113,919,169,686,277,620,976,294,209,607,325,229,540,487,125,42,962,195,272,531,926,347,358,67,52,302,242,805,289,513,456,537,401,510,906,982,330,198,552,499,702,936,969,148,714,387,788,227,859,122,331,323,526,687,321,877,270,193,312,915,409,780,566,244,350,380,170,681,588,377,296,155,897,835,784,279,782,794,7,851,342,51,996,852,458,495,865,43,610,399,202,200,711,932,970,728,761,720,201,569,479,924,775,723,180,404,889,459,838,830,212,697,78,334,752,740,33,105,695,224,541,974,134,955,626,420,753,758,922,293,798,19,925,62,763,754,950,825,158,89,861,478,290,140,662,144,737,156,16,690,904,30,26,750,485,568,843,706,310,900,472,353,446,629,191,776,985,218,952,284,206,246,724,250,505,722,645,369,644,245,822,785,25,968,316,319,466,372,927,668,417,512,282,946,894,572,527,75,771,361,329,583,977,533,508,892,868,556,362,916]","arrowright","","true","0","4","233","1000","[""0052_N1000_K0233_NOCLIQUE"",""0085_N1000_K0233_CLIQUE""]"
"","","","","","audio-keyboard-response","56","101253","0.0-52.0-0.0-1.0","","null","audio_feedback/right/coin01.mp3","null","","","","","0","4","233","1000","[""0052_N1000_K0233_NOCLIQUE"",""0085_N1000_K0233_CLIQUE""]"
"","","","","","canvas-keyboard-response","57","102402","0.0-53.0-0.0-0.0","","445","","arrowright","[40,573,617,209,910,583,579,91,670,115,987,919,673,516,700,723,331,970,785,112,659,376,722,725,186,528,42,665,835,979,249,207,257,165,392,442,305,895,354,189,332,873,296,21,315,578,624,162,718,636,139,30,696,502,161,581,437,746,708,61,106,58,993,105,39,734,245,654,201,260,107,294,169,522,156,55,812,114,401,973,953,547,809,135,507,747,950,709,171,218,786,793,657,320,655,357,337,205,99,344,486,599,284,417,750,397,177,966,587,167,961,853,330,626,840,757,628,360,995,518,418,235,533,817,997,184,501,321,554,944,884,6,643,109,262,287,277,266,228,767,498,792,203,79,660,684,194,968,506,210,530,151,597,562,864,664,134,311,595,781,4,476,341,914,327,159,352,804,568,34,251,462,509,551,615,414,326,468,178,806,777,250,378,735,796,197,72,261,623,874,290,838,444,240,75,291,888,740,629,60,12,939,511,237,347,886,525,405,254,941,647,921,872,491,642,866,739,676,222,576,698,741,143,174,215,276,875,66,335,141,783,827,876,845,787,697,346,727,557,847,402,345,788,724,813,393,766,706,618,192,782,142,546,687,900,122,398,353,80,416,89,100,460,523,859,379,133,102,524,350,982,930,26,220,333,681,955,27,811,634,805,751,470,909,535,908,385,942,424,265,136,863,421,489,693,239,24,279,529,820,971,467,439,745,844,679,901,325,124,905,571,799,992,359,173,496,140,255,182,449,475,318,959,152,406,130,94,120,674,412,288,231,933,954,419,685,669,453,485,480,269,219,841,877,625,415,946,779,429,752,466,185,918,0,857,5,441,226,856,989,637,15,810,564,420,851,552,627,191,494,116,146,652,67,520,553,940,550,206,383,166,370,438,85,155,808,969,962,892,310,929,364,880,11,686,348,797,682,286,473,600,825,504,176,870,575,631,334,758,903,622,283,924,951,54,300,561,824,902,661,50,545,678,894,656,534,641,400,609,86,733,246,431,763,188,361,882,980,899,611,48,297,842,22,2,569,190,843,160,764,644,852,303,720,736,923,427,78,443,292,542,957,937,754,828,983,95,705,871,996,212,683,913,834,108,49,887,613,227,483,977,46,447,714,691,409,898,548,14,386,497,726,479,772,428,602,893,35,225,648,897,775,390,204,582,904,267,10,195,256,737,988,193,846,372,677,836,147,153,604,771,56,459,426,865,123,113,794,175,148,362,773,526,742,282,801,270,639,928,748,680,891,68,729,128,31,610,503,593,407,985,890,374,399,560,658,103,387,295,145,436,302,69,248,638,328,538,570,349,484,329,363,29,7,90,440,404,70,513,23,144,592,132,780,885,53,118,158,18,994,855,3,744,238,216,458,795,776,314,340,934,850,878,755,632,559,319,301,32,563,51,640,81,567,689,963,338,694,765,521,947,110,307,699,138,64,549,65,289,19,695,978,371,168,33,728,925,389,247,916,323,927,981,943,858,236,986,974,649,803,667,854,457,926,769,233,537,373,59,450,821,701,164,119,17,862,932,541,252,831,500,869,860,743,214,688,196,556,784,101,588,41,358,403,45,273,274,493,461,224,200,271,73,285,83,375,807,499,555,760,948,1,580,606,591,394,20,104,410,956,585,465,589,430,38,915,816,730,753,117,931,692,881,668,964,671,474,633,791,317,74,57,713,253,896,280,833,111,823,532,539,759,938,650,572,179,590,653,445,366,574,619,814,433,867,608,822,945,540,612,368,150,272,157,883,88,798,672,92,309,952,829,558,907,76,715,972,707,198,663,527,515,62,849,488,675,172,211,512,481,13,519,958,82,8,756,830,815,47,149,789,244,998,731,586,268,976,868,243,594,920,935,906,129,965,471,620,223,510,423,605,275,738,316,463,154,229,137,422,93,125,482,616,598,879,380,768,448,749,199,84,778,711,464,312,28,213,690,991,889,703,181,967,96,514,837,281,770,455,170,396,63,163,411,413,127,456,818,408,601,645,37,603,826,131,478,121,365,531,949,774,584,313,702,322,832,917,596,16,298,391,388,536,451,505,230,25,492,384,666,717,232,180,790,435,614,607,999,472,719,367,217,490,800,183,208,306,187,630,381,819,848,469,308,912,635,802,259,339,432,434,761,975,704,495,278,304,577,762,452,662,922,71,299,356,960,712,258,710,732,263,369,721,36,324,487,565,52,377,477,264,43,241,990,508,446,293,9,716,382,395,202,543,544,98,621,425,351,646,97,44,517,936,861,651,77,336,126,355,911,221,984,566,454,342,343,87,242,234,839]","arrowright","","true","0","5","233","1000","[""0059_N1000_K0233_NOCLIQUE"",""0071_N1000_K0233_CLIQUE""]"
"","","","","","audio-keyboard-response","58","103394","0.0-53.0-0.0-1.0","","null","audio_feedback/right/coin01.mp3","null","","","","","0","5","233","1000","[""0059_N1000_K0233_NOCLIQUE"",""0071_N1000_K0233_CLIQUE""]"
"","","","","","canvas-keyboard-response","59","104657","0.0-54.0-0.0-0.0","","495","","arrowleft","[514,89,582,892,942,644,527,435,567,283,956,402,894,41,766,663,421,272,457,504,398,446,598,100,106,633,49,422,413,577,501,583,796,310,450,724,632,750,693,67,536,468,33,233,599,844,24,219,454,846,189,897,379,848,407,629,178,596,807,751,459,930,276,723,730,96,146,549,303,608,35,561,373,79,551,137,449,597,461,32,211,591,63,111,463,11,243,938,81,626,309,61,913,242,749,158,237,553,39,394,42,758,814,433,45,229,141,387,641,28,340,746,20,321,80,893,800,765,213,853,75,369,62,786,371,784,222,473,104,857,185,438,772,130,317,423,755,332,717,858,816,300,836,691,17,247,241,537,54,976,498,368,348,347,280,943,820,928,57,60,399,338,578,494,987,992,622,950,418,958,284,570,26,15,388,465,685,301,747,23,294,372,566,364,462,739,612,40,160,980,442,299,842,31,144,613,224,571,43,690,12,430,941,169,734,505,22,788,85,670,995,55,88,616,575,515,810,952,827,427,6,802,787,674,119,959,97,210,826,768,287,268,469,341,785,496,944,64,541,197,954,695,232,532,977,924,754,513,214,748,533,986,382,116,91,661,188,972,51,933,666,650,316,619,883,328,973,250,607,534,539,687,296,668,226,186,781,94,901,638,187,601,151,424,358,657,261,113,290,935,708,510,557,586,165,735,320,476,109,333,466,123,425,790,479,665,957,669,860,679,343,923,172,774,683,485,275,318,124,323,707,620,538,439,672,122,879,903,769,447,464,87,885,412,121,414,76,408,642,804,400,110,46,506,792,701,849,830,628,757,282,922,271,866,346,643,655,270,37,136,805,898,384,314,968,207,125,29,383,390,239,715,521,861,882,266,277,472,117,618,649,947,322,585,331,112,139,460,535,824,83,503,452,623,738,700,489,559,153,235,625,714,512,389,863,949,953,886,499,215,627,497,699,71,939,56,703,867,568,305,970,267,278,868,509,905,191,732,244,291,161,396,634,887,377,251,118,142,313,606,156,729,955,293,996,25,363,132,630,376,809,93,38,550,741,847,44,676,680,948,652,828,69,5,511,409,115,217,326,998,342,416,982,311,181,273,204,352,356,508,133,8,202,312,558,180,286,517,315,73,135,926,395,556,580,30,791,981,572,507,259,813,101,731,985,134,444,889,651,994,546,881,220,821,777,823,834,705,420,330,360,835,971,14,589,120,522,552,989,114,793,393,428,415,637,779,896,745,319,519,491,673,545,345,1,344,159,177,845,456,678,615,722,274,72,880,819,852,888,467,264,587,490,770,483,569,907,960,269,307,193,84,92,610,200,381,336,932,544,474,851,602,487,664,999,138,77,990,775,524,839,167,902,592,325,899,351,789,782,367,182,914,304,203,614,756,529,162,964,645,302,759,975,801,392,920,455,520,904,105,817,936,840,603,965,209,74,289,339,90,865,713,70,174,937,155,366,875,910,617,974,951,776,891,573,288,639,831,374,917,716,171,434,911,675,811,574,298,660,934,991,636,906,354,890,453,829,478,308,249,726,445,908,712,761,68,916,962,808,406,306,385,646,931,440,216,993,82,822,230,4,126,874,554,458,542,253,692,168,921,709,855,878,103,744,206,262,208,59,945,876,843,595,631,128,737,611,493,600,431,870,884,500,762,584,677,540,329,2,86,815,988,443,624,895,531,397,163,327,929,654,684,148,780,794,184,871,590,13,362,145,743,818,254,147,733,231,53,492,359,218,979,127,108,588,212,258,909,335,152,518,401,560,912,411,681,806,812,484,799,725,263,530,355,353,223,386,859,361,52,653,58,240,334,525,767,579,778,357,760,295,98,297,718,143,997,966,7,523,131,21,564,150,391,704,175,783,593,635,694,727,477,107,129,257,877,838,872,516,963,658,621,710,281,771,245,667,873,426,437,562,969,378,742,797,471,925,195,50,410,984,36,154,429,480,194,697,279,918,706,18,403,173,862,417,252,728,502,201,864,19,940,102,205,605,856,526,773,236,95,260,99,688,432,0,555,736,495,292,927,719,837,961,486,419,157,640,648,164,659,764,548,285,698,475,405,27,609,547,482,196,543,192,528,825,803,581,900,711,721,481,238,337,647,16,946,753,221,350,682,380,176,832,565,869,854,375,265,833,246,225,662,199,671,65,441,78,604,198,248,488,470,140,576,656,349,324,978,983,451,228,48,66,166,190,370,404,696,563,255,752,9,179,170,967,763,34,919,915,365,795,3,10,256,47,702,720,227,234,149,689,448,798,686,850,841,740,183,594,436]","arrowleft","","true","0","6","217","1000","[""0039_N1000_K0217_CLIQUE"",""0009_N1000_K0217_NOCLIQUE""]"
"","","","","","audio-keyboard-response","60","105653","0.0-54.0-0.0-1.0","","null","audio_feedback/right/coin01.mp3","null","","","","","0","6","217","1000","[""0039_N1000_K0217_CLIQUE"",""0009_N1000_K0217_NOCLIQUE""]"
"","","","","","canvas-keyboard-response","61","106823","0.0-55.0-0.0-0.0","","426","","arrowright","[310,940,743,43,979,980,217,211,186,364,737,27,903,510,836,118,856,656,439,741,49,86,116,352,823,6,824,266,539,120,162,795,127,905,146,695,498,62,379,348,659,703,995,13,892,213,492,297,90,241,765,635,117,365,10,285,312,677,455,98,356,23,270,624,755,342,646,623,571,896,784,254,16,907,718,667,512,532,706,972,922,945,715,725,226,581,681,454,513,208,321,590,391,333,916,276,70,375,893,25,832,613,390,909,549,205,787,489,31,658,381,196,694,264,701,452,121,485,948,148,192,24,376,235,617,562,130,783,804,580,54,758,559,889,722,222,954,249,917,545,519,516,989,537,606,846,524,135,80,394,608,169,165,508,15,386,491,655,507,662,540,878,857,482,72,666,474,293,96,143,124,728,34,567,413,879,805,711,295,2,443,91,400,622,280,36,216,467,994,338,564,236,462,570,591,261,863,645,827,173,268,373,392,852,407,991,504,172,134,225,951,947,122,405,638,673,612,596,821,960,315,410,389,792,937,986,274,585,978,416,202,702,0,752,671,660,158,187,595,5,262,689,42,403,753,526,426,471,176,520,920,860,926,599,155,328,998,248,40,14,858,288,336,159,782,488,4,284,472,298,679,876,453,149,944,490,663,469,319,799,699,769,190,921,68,221,906,325,33,335,493,286,395,678,633,383,556,825,928,772,565,232,771,227,137,816,371,415,946,411,331,89,976,147,131,877,369,136,810,576,778,789,742,862,938,923,150,267,361,873,181,674,600,442,551,494,92,569,404,959,253,636,685,934,201,341,974,583,705,950,999,330,166,932,47,188,849,572,992,346,303,114,652,349,125,840,470,871,935,859,133,890,698,707,179,751,273,281,465,366,933,704,78,953,142,688,311,503,760,368,495,468,548,85,904,82,65,898,798,833,517,579,44,26,75,417,554,475,818,193,423,353,651,983,224,822,289,802,578,628,444,419,37,640,543,61,641,46,957,463,45,872,499,220,239,231,587,955,428,895,18,739,355,762,347,244,829,745,210,558,574,919,29,435,847,450,891,420,639,209,686,883,812,552,566,283,457,318,322,897,837,301,171,101,477,111,691,584,406,657,461,900,52,393,693,589,793,88,259,178,773,848,843,282,483,970,748,763,384,525,734,329,67,609,377,305,478,446,943,631,438,487,464,675,618,387,447,506,144,314,790,206,808,683,128,308,255,119,93,204,942,632,853,189,615,925,586,103,797,402,839,372,785,605,182,30,602,981,530,296,729,518,625,451,963,8,399,77,774,240,776,334,568,984,869,223,835,21,779,592,106,129,668,458,22,1,104,844,396,874,53,48,3,278,360,505,594,750,813,665,582,316,664,184,228,198,720,233,911,55,317,975,749,102,842,175,714,557,985,152,550,534,138,528,87,445,243,968,219,794,359,174,291,397,140,39,930,630,687,807,496,814,719,250,59,912,251,684,339,500,238,713,870,527,982,272,929,449,358,185,385,642,421,151,167,731,302,726,648,265,800,644,680,160,803,327,12,868,100,459,509,258,362,841,768,775,275,382,899,480,561,809,700,306,560,194,344,670,515,939,692,230,203,886,79,200,996,682,969,287,738,260,697,855,139,163,887,401,817,529,724,767,867,764,154,619,712,777,326,971,112,593,511,164,616,32,736,990,388,627,157,437,544,7,83,522,924,811,766,313,374,965,993,484,546,721,977,237,69,279,914,563,427,649,354,894,597,214,997,300,901,838,35,156,834,880,791,761,242,881,19,132,429,351,20,502,168,94,747,780,672,76,56,966,730,456,781,170,153,9,66,126,370,637,74,304,481,50,756,378,123,831,323,851,759,696,949,598,99,412,884,941,107,433,770,73,307,299,380,234,11,815,501,542,473,252,17,902,418,432,865,113,290,601,476,806,440,448,888,629,340,479,434,246,744,425,245,864,357,294,141,850,422,733,218,38,535,514,603,647,523,332,830,611,84,661,64,199,497,801,987,710,441,788,931,973,910,195,577,345,634,28,845,653,145,177,735,531,60,927,398,746,861,967,908,727,676,292,95,988,212,936,110,621,191,41,819,607,424,460,108,717,408,964,430,573,958,669,247,575,207,521,71,263,105,614,690,828,63,363,431,309,343,271,58,915,466,885,716,732,367,215,269,620,536,486,257,854,350,436,414,555,918,820,604,337,626,161,754,786,643,256,324,913,183,97,553,796,654,740,541,961,81,866,180,962,409,320,533,709,277,588,875,610,57,952,723,757,538,882,826,708,197,956,115,51,650,109,547,229]","arrowright","","true","0","7","217","1000","[""0051_N1000_K0217_NOCLIQUE"",""0033_N1000_K0217_CLIQUE""]"
"","","","","","audio-keyboard-response","62","107813","0.0-55.0-0.0-1.0","","null","audio_feedback/right/coin01.mp3","null","","","","","0","7","217","1000","[""0051_N1000_K0217_NOCLIQUE"",""0033_N1000_K0217_CLIQUE""]"
"","","","","","canvas-keyboard-response","63","109138","0.0-56.0-0.0-0.0","","561","","arrowleft","[914,246,101,426,515,831,953,69,879,389,802,893,851,357,980,803,885,41,146,952,309,332,581,382,786,501,877,159,51,379,847,995,74,365,443,267,328,840,134,80,503,243,817,108,20,637,950,286,310,411,75,337,495,377,117,695,693,523,518,232,999,939,617,588,192,390,86,144,148,569,167,462,18,464,557,438,419,193,250,492,38,545,959,48,653,182,294,683,410,190,698,671,620,992,262,369,408,166,763,386,611,344,916,371,490,660,941,383,211,422,45,596,888,201,425,266,210,508,731,281,33,975,891,528,61,99,563,312,293,405,493,274,143,666,909,53,455,901,900,534,591,393,169,616,769,558,11,327,110,948,301,944,756,441,162,323,360,676,363,806,206,147,458,529,663,618,532,957,932,536,421,744,90,496,564,123,141,919,114,983,736,555,613,499,36,522,839,996,792,594,319,945,361,135,673,326,314,829,283,343,440,200,461,747,244,745,604,651,322,684,271,126,219,553,543,998,12,21,452,288,187,251,704,49,138,690,642,549,350,832,783,737,734,91,985,658,865,868,239,111,773,188,50,465,73,562,841,35,189,990,258,161,647,576,71,154,641,304,648,750,233,54,962,431,871,988,47,834,507,969,971,414,340,157,124,720,633,713,768,284,435,225,657,828,801,727,603,655,325,105,153,580,778,214,951,276,674,238,565,279,215,370,876,31,487,259,665,886,524,453,254,212,2,295,600,572,255,818,643,115,384,229,943,320,758,413,541,556,376,489,321,395,176,476,396,960,373,946,85,221,120,739,612,346,707,527,621,24,821,480,418,387,925,691,701,107,872,833,547,762,638,203,942,194,644,520,981,958,277,599,98,429,825,682,777,894,100,606,912,398,118,650,297,718,884,878,664,697,794,504,740,949,439,427,488,347,875,625,208,799,423,354,199,816,823,935,17,55,757,994,81,400,755,273,34,597,151,574,79,59,42,582,249,394,67,23,561,531,827,367,570,474,968,510,808,899,936,65,681,224,978,52,835,722,789,364,253,102,260,575,223,451,619,56,738,800,626,813,519,454,859,104,866,632,585,177,922,607,624,292,336,822,163,770,313,15,446,984,895,512,717,915,904,269,467,753,669,218,766,917,578,979,103,610,372,58,122,566,278,716,513,820,892,631,967,973,317,156,937,168,375,315,986,222,860,726,719,856,656,883,305,771,571,235,923,459,196,538,530,160,911,95,338,862,537,672,748,240,181,62,864,956,449,469,974,544,929,568,863,448,198,207,183,502,848,175,473,179,782,846,595,437,125,842,202,358,140,430,494,500,478,754,796,629,404,420,341,628,785,729,668,226,977,237,197,924,640,109,463,623,132,760,32,845,798,82,450,706,280,434,306,972,608,966,6,331,837,342,165,152,10,184,987,589,590,928,311,931,428,880,136,721,22,479,652,268,14,742,635,355,903,677,615,583,735,896,77,231,679,781,287,788,605,774,926,275,195,351,907,381,997,767,385,548,593,867,252,991,265,28,399,814,83,934,705,270,380,78,797,170,128,711,172,433,700,456,191,708,84,685,149,485,692,874,963,477,345,699,634,710,245,96,272,289,955,180,234,497,298,57,37,127,44,964,94,291,447,584,898,174,790,897,353,723,63,938,256,39,13,976,689,509,702,116,230,329,552,752,982,890,849,918,155,472,442,587,316,374,9,810,285,26,824,204,92,728,171,290,158,457,836,602,481,217,318,113,137,807,241,730,349,220,468,491,308,579,843,401,743,514,511,29,714,765,209,609,725,853,546,112,0,598,947,7,445,540,19,236,87,70,150,348,30,661,362,356,667,417,46,516,391,791,3,97,324,550,751,724,989,4,811,471,815,830,257,920,486,216,844,339,300,551,795,688,498,227,784,263,819,961,687,577,242,592,804,686,282,334,264,330,772,366,906,954,145,870,407,852,854,506,889,764,761,749,913,861,776,142,359,567,787,444,16,299,733,368,715,775,505,675,517,639,881,780,560,64,397,352,921,694,76,573,805,378,696,521,213,403,826,712,409,484,106,402,646,869,130,139,296,525,559,759,436,119,470,636,703,586,475,933,905,333,910,5,88,882,302,121,654,680,1,483,133,535,432,630,178,533,812,554,247,460,746,965,622,662,850,40,779,902,412,970,466,601,416,645,335,993,129,857,858,388,927,261,185,164,482,709,838,248,131,908,627,614,303,60,72,93,542,8,307,539,25,27,678,228,68,415,43,887,66,186,741,173,526,930,940,670,855,793,873,424,205,809,89,649,732,659,392,406]","arrowleft","","true","0","8","200","1000","[""0039_N1000_K0200_CLIQUE"",""0047_N1000_K0200_NOCLIQUE""]"
"","","","","","audio-keyboard-response","64","110132","0.0-56.0-0.0-1.0","","null","audio_feedback/right/coin01.mp3","null","","","","","0","8","200","1000","[""0039_N1000_K0200_CLIQUE"",""0047_N1000_K0200_NOCLIQUE""]"
"","","","","","canvas-keyboard-response","65","111477","0.0-57.0-0.0-0.0","","611","","arrowleft","[542,503,103,101,59,497,273,435,189,989,12,842,838,493,926,379,271,445,195,996,934,891,7,263,358,301,424,377,849,259,566,791,421,414,564,100,744,834,631,165,385,969,240,461,392,184,721,682,521,186,33,803,903,340,370,344,562,15,425,742,602,655,985,94,43,442,840,988,766,28,206,539,102,709,892,858,961,29,257,537,829,994,245,121,393,363,334,724,241,980,970,720,917,837,563,239,82,242,660,501,872,620,96,400,890,981,802,398,678,178,650,383,130,268,359,773,535,759,311,387,915,982,651,153,889,338,836,794,627,897,676,686,941,787,623,553,294,610,354,108,475,459,869,200,901,223,266,706,899,249,255,297,617,944,642,700,657,337,614,697,962,924,581,71,93,603,913,647,815,653,45,210,419,580,120,516,841,851,763,668,593,874,335,520,513,942,431,309,163,437,357,789,167,946,310,62,598,233,703,225,391,622,201,576,151,600,616,531,433,875,420,785,748,788,768,893,609,812,991,729,757,854,957,701,405,34,732,665,352,814,555,673,739,325,314,846,745,401,712,418,407,743,116,972,295,182,640,978,152,810,738,633,922,364,705,716,679,545,611,275,276,46,509,395,699,409,731,484,948,502,672,645,79,711,805,776,332,106,177,261,635,375,176,244,142,793,154,556,192,719,557,428,323,808,247,336,774,680,807,451,695,873,945,843,144,174,410,3,681,747,546,235,64,316,939,765,863,471,852,540,756,923,80,132,883,156,31,113,974,625,797,168,605,905,362,131,906,74,289,408,226,137,888,806,835,847,300,898,58,196,646,677,998,439,613,286,822,675,41,453,725,592,61,498,462,396,373,723,467,326,160,782,658,170,943,40,146,243,329,486,9,560,60,89,372,758,693,476,457,659,583,522,809,22,966,813,187,73,783,70,879,403,2,204,1,191,322,128,833,590,277,35,376,551,937,83,824,134,19,853,231,109,307,107,544,775,704,864,319,304,81,554,216,510,963,713,429,212,654,480,868,500,65,769,353,371,495,270,547,762,237,689,84,528,928,850,194,565,688,800,119,122,615,801,229,69,844,921,205,203,360,525,572,585,630,527,795,443,180,856,933,515,47,790,956,328,331,378,468,164,283,571,91,86,670,818,819,426,181,663,979,973,870,318,538,173,524,708,232,887,636,871,506,397,90,907,458,760,222,53,202,456,683,98,541,504,643,95,965,584,935,54,50,150,733,284,938,481,821,518,662,612,971,412,482,321,248,118,825,999,324,450,848,339,68,674,32,138,727,422,0,348,413,798,172,125,465,183,930,684,589,595,30,726,496,781,374,910,885,577,291,543,880,718,691,406,950,737,199,715,648,817,135,664,110,960,345,42,530,454,402,251,656,472,770,447,619,88,916,57,312,884,857,823,730,269,302,365,568,512,696,511,588,258,771,37,526,902,597,97,784,361,213,254,78,955,438,384,416,749,632,10,238,830,573,750,296,967,826,342,76,104,820,404,920,430,17,415,578,755,432,215,485,389,596,968,591,227,209,867,214,77,298,333,148,534,927,637,859,507,931,129,145,473,909,895,764,474,112,977,281,52,341,477,265,882,523,548,236,224,607,149,599,299,667,72,855,804,692,44,171,777,285,99,411,440,976,207,219,740,217,220,702,639,24,87,904,831,532,845,491,561,5,185,21,460,386,228,347,628,958,470,139,23,166,896,671,919,143,380,792,641,780,533,423,308,464,900,644,417,536,436,346,736,208,714,141,839,427,123,349,367,67,753,368,287,877,278,722,20,975,734,327,925,752,264,778,990,912,66,608,48,313,652,487,155,279,280,997,796,355,13,661,343,953,746,16,469,179,914,508,604,455,292,954,85,881,964,382,117,505,993,741,256,126,250,136,288,27,886,51,947,158,350,582,434,761,133,140,127,479,388,197,282,878,466,6,940,517,381,272,114,570,162,707,601,499,799,575,175,621,987,463,876,198,626,618,161,448,558,932,586,4,862,494,832,193,36,317,478,124,56,55,105,147,320,772,315,305,698,936,579,587,995,624,634,629,929,169,111,574,159,666,986,569,115,399,860,710,26,911,39,290,267,952,735,490,75,754,218,157,767,594,306,649,230,369,861,63,262,246,959,728,260,390,441,779,828,669,567,92,366,786,949,550,894,685,293,951,11,452,25,449,908,519,827,330,865,488,514,446,811,8,549,483,690,356,190,489,638,687,444,394,984,252,351,918,303,694,983,816,751,866,492,211,38,606,529,253,559,18,221,992,14,552,717,49,274,234,188]","arrowleft","","true","0","9","200","1000","[""0036_N1000_K0200_CLIQUE"",""0092_N1000_K0200_NOCLIQUE""]"
"","","","","","audio-keyboard-response","66","112473","0.0-57.0-0.0-1.0","","null","audio_feedback/right/coin01.mp3","null","","","","","0","9","200","1000","[""0036_N1000_K0200_CLIQUE"",""0092_N1000_K0200_NOCLIQUE""]"
"","","","","","canvas-keyboard-response","67","113660","0.0-58.0-0.0-0.0","","464","","arrowright","[271,452,197,121,609,414,794,557,710,393,888,898,553,210,40,309,502,994,409,440,970,712,751,552,183,965,867,937,629,511,922,997,2,662,736,495,709,94,781,996,984,635,658,236,438,65,258,708,764,97,492,46,228,851,253,819,215,859,134,395,699,239,657,510,297,57,581,753,226,317,408,673,842,274,202,138,805,229,817,360,175,790,476,18,180,105,308,617,901,334,516,402,371,254,876,152,227,225,697,6,860,463,659,693,109,451,852,273,212,727,43,865,119,266,838,670,983,436,290,61,321,86,880,975,381,748,612,390,948,161,459,630,916,623,91,598,533,446,168,208,915,217,469,429,935,17,237,93,701,204,669,329,115,135,249,840,160,347,328,199,272,137,883,39,650,348,929,298,854,738,836,287,311,957,316,966,235,976,265,770,894,323,563,830,404,713,889,564,441,354,312,8,974,962,127,593,124,906,411,676,501,443,136,27,220,990,907,841,956,9,351,642,143,112,21,189,424,793,394,7,899,69,142,238,530,335,177,116,667,388,517,487,453,416,442,839,484,421,884,430,58,588,705,624,232,178,955,547,77,5,108,774,806,358,342,849,535,782,875,80,122,113,270,25,665,660,995,871,478,67,195,149,881,725,800,855,540,809,196,796,59,570,607,420,485,366,313,169,346,626,870,1,561,493,521,613,363,729,919,139,550,391,157,486,674,765,534,968,194,456,19,506,779,479,286,396,364,28,783,972,752,522,432,921,856,890,911,243,754,912,982,26,702,644,410,241,315,771,589,831,62,240,244,218,559,910,973,824,425,866,513,743,118,897,648,707,376,766,96,201,873,268,715,939,207,628,684,182,162,435,318,963,686,512,518,423,264,305,932,611,92,698,304,15,741,76,671,504,940,471,82,368,991,720,508,541,41,245,677,694,608,946,52,47,221,331,633,622,276,288,384,38,283,620,349,114,214,595,267,730,797,616,145,400,13,820,185,554,591,10,822,735,355,66,42,111,678,745,32,886,101,960,357,337,811,415,350,949,758,261,750,637,141,466,618,12,209,739,761,636,590,651,954,900,846,542,98,601,874,474,795,583,20,927,203,524,645,519,74,896,691,71,785,977,714,814,904,802,219,444,767,844,36,45,343,737,925,78,190,250,861,696,399,732,850,574,950,638,172,967,176,361,837,672,762,641,872,84,615,89,769,296,908,242,526,489,746,275,427,777,159,319,468,808,307,262,724,255,892,981,560,4,695,458,679,569,936,539,428,804,132,389,322,556,928,498,606,55,731,500,340,336,646,938,60,703,205,787,597,386,369,284,110,718,477,625,352,887,188,722,848,387,789,918,87,528,529,246,186,733,834,902,216,700,153,807,22,791,666,320,986,953,548,382,439,326,128,903,407,776,945,943,33,130,35,53,419,431,85,643,515,156,566,760,31,531,150,958,165,496,461,413,828,784,123,578,632,833,497,327,324,914,503,740,339,88,144,333,73,117,68,726,248,664,596,447,81,131,536,843,233,464,379,768,383,398,647,964,681,385,310,437,885,584,462,126,230,75,857,64,930,756,801,455,181,980,472,585,104,14,520,600,34,106,280,573,491,257,532,213,815,816,392,653,826,166,683,29,433,862,44,778,362,747,869,523,682,961,457,170,412,944,155,549,749,481,587,772,325,813,303,299,509,690,306,370,803,652,269,102,173,51,251,605,543,798,54,279,289,879,931,818,546,920,505,661,465,467,224,775,293,167,295,576,344,63,377,338,49,301,924,378,640,418,895,951,174,507,917,592,728,90,675,48,158,868,23,603,107,30,829,716,278,934,979,631,375,572,773,614,281,755,742,285,147,488,544,893,50,792,825,37,538,649,56,367,70,171,480,211,604,259,291,719,72,909,300,341,525,133,621,95,231,294,993,222,575,721,403,405,454,821,482,941,359,687,277,882,863,744,330,812,586,292,417,527,449,942,704,759,545,260,799,179,847,827,668,810,406,473,639,445,475,988,926,140,16,494,555,198,680,148,786,562,191,234,345,602,483,380,187,845,184,151,711,3,11,717,992,499,192,448,952,434,332,913,0,634,252,565,823,120,460,654,891,969,256,685,374,401,372,514,99,763,923,858,353,780,490,692,998,579,450,356,397,933,24,470,582,853,314,580,627,125,282,163,656,200,426,193,302,757,146,154,663,971,989,599,567,688,206,878,373,864,788,83,79,689,558,619,577,263,655,947,985,734,100,129,723,422,832,905,571,103,551,999,223,978,959,164,835,247,537,987,610,877,594,568,706,365]","arrowright","","true","0","10","183","1000","[""0025_N1000_K0183_NOCLIQUE"",""0081_N1000_K0183_CLIQUE""]"
"","","","","","audio-keyboard-response","68","114653","0.0-58.0-0.0-1.0","","null","audio_feedback/right/coin01.mp3","null","","","","","0","10","183","1000","[""0025_N1000_K0183_NOCLIQUE"",""0081_N1000_K0183_CLIQUE""]"
"","","","","","canvas-keyboard-response","69","115850","0.0-59.0-0.0-0.0","","476","","arrowleft","[719,861,566,941,363,983,103,710,872,419,698,521,760,717,68,281,517,747,166,765,44,229,95,489,362,827,769,297,98,575,488,375,41,427,173,92,581,702,908,63,51,50,461,456,676,274,838,879,384,777,214,642,682,106,707,623,959,565,816,601,410,703,448,78,268,758,137,685,317,136,124,6,876,223,287,571,991,616,52,862,343,745,691,856,899,594,579,897,309,892,545,656,54,864,540,413,231,472,992,434,850,132,644,232,659,8,696,990,125,531,345,568,469,610,530,351,264,657,808,609,177,649,904,509,492,671,318,169,141,931,38,364,834,948,607,790,267,394,528,753,832,782,294,165,213,296,921,433,199,963,734,493,956,323,730,898,960,567,596,450,706,197,436,888,9,115,304,592,100,547,874,913,306,792,873,236,923,258,793,227,535,153,90,646,48,660,204,218,477,298,74,648,56,180,486,337,928,373,541,692,321,836,69,421,884,179,288,910,560,504,247,544,670,144,127,32,146,572,133,880,833,195,742,866,998,853,997,381,76,224,27,205,640,319,858,751,697,546,772,397,627,538,292,414,618,443,788,328,371,727,303,763,881,82,28,34,430,432,860,1,270,689,346,716,855,341,807,523,781,86,79,574,241,673,740,369,490,548,577,277,356,613,148,466,286,837,250,672,844,151,993,300,389,347,3,0,235,945,974,501,438,483,244,408,669,451,176,786,995,930,131,174,271,920,308,58,134,962,130,561,711,885,839,105,518,26,796,330,491,500,403,62,988,499,830,260,918,756,975,950,750,411,372,712,632,882,313,259,628,175,329,102,139,655,114,967,107,761,33,20,155,453,230,522,382,128,900,104,261,485,916,83,804,590,255,643,847,305,658,766,310,25,299,714,516,407,736,683,465,812,576,273,664,497,496,829,31,961,71,637,639,441,385,759,666,976,841,112,437,573,631,332,70,391,868,439,352,612,353,350,626,265,181,713,865,23,383,978,735,966,585,789,206,919,744,275,863,360,302,825,583,835,729,65,605,110,502,121,342,404,420,584,641,994,97,88,681,695,399,331,55,952,245,192,2,196,458,349,150,301,367,81,801,889,495,185,557,193,969,379,687,912,77,737,891,280,167,412,894,650,563,520,620,212,700,779,953,634,662,361,215,943,16,53,554,200,507,396,611,869,708,539,512,725,426,822,678,989,178,914,118,201,724,101,122,94,883,773,252,972,721,783,376,93,857,954,852,654,40,907,728,533,482,211,87,481,813,18,447,326,355,186,209,877,981,536,617,510,980,957,720,679,731,478,823,400,970,622,149,653,457,922,344,354,704,797,226,266,615,971,843,757,377,24,7,814,422,722,198,416,636,470,325,979,42,871,795,752,335,624,635,36,475,770,693,968,388,126,828,398,778,809,225,409,22,109,216,932,307,314,487,415,705,5,108,831,117,276,157,803,806,602,741,256,947,168,958,473,677,903,238,895,171,315,339,927,291,726,279,463,826,820,982,875,327,172,158,564,129,519,924,283,120,663,647,821,494,785,929,142,619,49,30,525,549,511,690,366,156,940,878,955,119,445,848,15,464,776,219,749,887,926,718,272,802,431,368,251,11,936,425,934,392,14,160,248,870,468,542,529,190,159,395,187,973,986,933,604,435,668,589,625,768,906,311,91,312,405,234,320,614,96,401,459,390,675,854,334,85,45,652,194,674,715,19,220,949,774,428,606,316,184,46,543,440,484,324,57,278,787,732,951,380,767,608,597,587,480,239,508,254,506,449,526,534,965,479,527,893,402,805,207,984,406,977,116,154,429,293,164,61,859,365,819,498,64,452,902,591,771,694,851,322,588,188,249,553,896,794,987,748,123,84,780,939,240,290,680,784,393,513,39,537,524,946,580,66,709,552,262,532,964,942,754,338,471,514,503,645,651,60,515,222,688,387,295,570,551,621,189,442,909,550,665,111,417,462,113,285,80,208,890,762,21,701,733,686,67,99,699,152,454,47,446,599,743,263,29,170,253,661,556,586,191,840,217,474,73,228,357,476,846,89,905,800,203,633,4,817,243,593,210,161,824,418,798,935,163,791,374,460,630,17,257,147,667,911,140,233,915,764,336,775,237,603,75,555,13,723,582,886,746,10,901,340,183,359,12,598,35,37,269,815,182,845,246,59,595,985,358,423,755,739,638,333,202,944,818,386,578,162,558,370,138,917,444,135,867,348,143,467,842,289,569,810,559,242,938,378,284,424,925,282,629,145,999,937,811,43,600,849,455,562,799,996,221,684,505,738,72]","arrowleft","","true","0","11","183","1000","[""0032_N1000_K0183_CLIQUE"",""0003_N1000_K0183_NOCLIQUE""]"
"","","","","","audio-keyboard-response","70","116833","0.0-59.0-0.0-1.0","","null","audio_feedback/right/coin01.mp3","null","","","","","0","11","183","1000","[""0032_N1000_K0183_CLIQUE"",""0003_N1000_K0183_NOCLIQUE""]"
"","","","","","canvas-keyboard-response","71","118454","0.0-60.0-0.0-0.0","","854","","arrowleft","[763,499,876,941,709,89,921,331,714,942,541,515,543,935,470,106,269,84,768,323,226,839,368,7,508,443,298,675,614,923,354,348,190,94,540,918,578,561,549,628,325,462,302,639,699,729,732,747,486,705,545,195,294,894,856,704,764,827,404,736,555,659,257,727,885,165,983,64,949,167,130,182,196,758,908,86,802,775,772,27,612,642,15,523,31,982,172,296,870,951,233,447,272,869,329,994,930,799,228,715,438,375,320,938,929,245,877,649,603,588,636,670,104,433,77,678,158,330,109,239,19,575,133,237,61,665,58,878,370,258,23,754,98,972,217,813,671,153,587,801,655,560,151,147,781,225,420,367,30,932,142,568,940,149,90,656,647,906,495,917,362,310,322,725,866,307,67,393,214,945,510,528,898,489,363,103,208,230,125,205,88,110,850,761,784,3,496,698,907,621,748,950,283,892,33,537,29,975,297,637,444,209,841,416,664,131,454,446,397,794,862,63,554,148,403,503,920,858,5,434,806,843,853,608,152,526,350,954,516,315,192,694,240,450,988,44,973,999,45,304,812,688,939,170,74,14,676,134,981,406,372,474,746,115,405,640,696,253,355,891,76,227,452,798,795,785,46,991,343,73,557,900,471,41,744,183,8,81,243,958,605,139,922,40,352,901,270,163,600,734,662,267,264,282,319,290,776,724,339,411,160,517,222,123,252,654,162,551,849,821,386,720,811,711,535,114,424,627,93,679,59,895,178,293,743,485,112,905,321,573,890,759,50,140,934,428,911,559,702,752,391,539,482,126,460,241,369,284,216,563,952,107,16,631,838,980,174,481,120,72,601,805,835,774,874,626,484,993,529,931,138,682,268,273,721,365,312,742,479,738,186,353,308,476,35,569,39,547,475,574,500,223,855,974,287,902,883,861,504,962,117,87,79,456,430,78,177,189,179,145,904,755,328,594,235,873,823,897,271,421,341,425,857,491,788,674,116,57,936,211,807,697,879,4,837,814,175,419,345,965,834,136,947,377,181,55,180,692,303,769,617,36,129,602,909,492,673,340,291,113,645,915,202,346,468,95,480,556,193,607,887,570,831,990,691,20,513,695,373,863,448,650,712,681,868,825,276,364,773,65,143,52,342,880,256,221,285,155,213,963,215,56,295,392,766,648,184,457,232,24,783,338,487,669,469,577,964,693,532,37,108,733,713,306,66,971,371,436,413,102,34,13,203,689,722,953,194,259,767,610,815,176,824,871,445,0,21,201,349,324,277,544,865,509,314,976,26,207,875,685,833,751,376,531,595,275,534,564,234,558,418,797,42,995,579,770,164,347,410,792,299,777,25,816,169,668,546,506,210,374,609,611,429,173,477,707,9,449,927,128,278,398,552,463,309,518,357,51,525,318,250,925,520,229,514,630,615,101,590,818,584,536,465,300,459,646,632,12,248,924,979,635,317,356,498,395,96,358,735,154,394,224,260,305,171,641,1,903,956,803,85,507,385,280,989,791,937,848,817,581,490,620,279,327,387,926,168,731,204,351,919,616,653,597,810,882,381,435,91,18,706,778,672,262,255,242,804,851,263,867,723,717,442,790,658,828,157,389,461,60,606,893,683,896,567,451,119,141,789,757,505,11,464,75,332,473,820,231,765,687,966,384,582,493,592,409,533,412,737,728,246,585,524,218,661,984,961,565,497,402,423,796,132,333,432,844,399,634,427,407,845,739,156,978,43,708,458,301,70,944,118,400,54,379,415,624,401,680,580,985,666,583,740,437,219,787,663,281,548,265,122,212,819,344,651,455,359,572,589,644,977,598,690,188,826,49,809,832,144,830,383,472,596,335,822,83,274,422,779,502,311,550,959,629,786,206,22,852,913,992,380,912,200,488,220,326,730,660,987,842,749,382,32,441,2,519,187,266,745,159,121,719,197,247,684,657,986,238,623,185,619,599,928,478,916,562,888,166,967,378,854,750,511,6,361,150,17,453,889,439,521,466,289,286,414,127,846,701,899,864,652,881,146,943,251,741,771,886,622,135,782,948,390,998,970,591,968,542,633,829,716,753,292,431,933,847,618,872,793,643,80,288,47,625,417,261,501,593,686,586,808,527,957,483,426,997,161,494,538,334,92,236,38,137,530,82,604,718,703,360,199,667,860,10,996,191,97,440,780,553,336,884,111,198,244,71,99,48,960,571,969,69,28,408,910,512,859,316,638,946,105,100,313,955,700,914,68,677,726,53,613,249,522,840,836,760,254,337,396,710,467,762,388,566,576,124,366,756,62,800]","arrowleft","","true","0","12","167","1000","[""0072_N1000_K0167_CLIQUE"",""0037_N1000_K0167_NOCLIQUE""]"
"","","","","","audio-keyboard-response","72","119453","0.0-60.0-0.0-1.0","","null","audio_feedback/right/coin01.mp3","null","","","","","0","12","167","1000","[""0072_N1000_K0167_CLIQUE"",""0037_N1000_K0167_NOCLIQUE""]"
"","","","","","canvas-keyboard-response","73","120567","0.0-61.0-0.0-0.0","","441","","arrowright","[768,297,834,945,761,663,122,995,872,705,274,371,456,28,964,572,173,275,570,438,575,354,858,707,550,494,439,680,756,167,69,151,665,357,249,573,605,416,470,996,32,242,643,927,128,356,462,682,62,527,307,650,81,309,229,465,740,36,88,613,985,348,910,511,257,873,973,634,165,72,797,421,234,948,781,692,675,472,704,143,74,296,401,41,221,367,827,586,156,974,390,808,224,789,780,891,960,395,542,312,881,884,926,574,794,934,820,982,899,585,701,791,455,919,488,35,588,703,490,962,63,793,946,245,214,869,611,280,447,301,18,685,178,295,342,38,396,17,474,914,868,710,986,183,610,256,626,316,515,39,972,327,911,85,944,635,587,979,304,870,464,302,231,818,303,770,904,361,207,22,637,918,620,419,505,127,966,957,742,317,607,824,562,203,146,86,500,159,861,157,743,450,268,486,250,332,699,132,938,252,531,306,54,640,975,753,211,350,614,518,491,903,441,546,310,717,916,266,397,79,732,426,228,578,921,321,521,563,652,83,993,737,392,154,802,166,988,393,778,543,623,261,376,433,560,874,422,269,589,293,452,825,814,590,48,105,135,355,9,644,364,239,107,956,13,826,718,616,502,687,798,387,501,837,180,801,219,483,495,191,890,213,746,323,609,538,639,336,40,661,55,536,683,56,187,322,238,930,273,860,528,58,118,920,73,496,110,568,697,333,684,557,859,217,281,313,775,375,319,508,773,600,747,631,247,487,576,97,658,632,963,662,673,615,236,851,196,283,828,577,368,799,345,343,373,601,702,762,998,476,181,752,810,215,359,42,31,913,284,729,68,67,939,567,583,138,460,906,163,989,493,897,121,931,612,624,836,480,688,192,430,337,370,723,734,147,448,947,766,725,591,922,314,482,423,19,65,901,330,453,405,153,328,374,525,30,959,285,112,415,378,0,867,96,877,4,90,8,720,458,117,711,16,912,44,102,875,728,940,659,331,404,812,841,785,311,402,469,980,507,856,141,991,365,534,816,796,45,360,193,790,489,886,900,233,398,629,468,603,853,896,544,852,329,103,854,772,287,555,932,479,15,902,968,892,556,223,78,344,530,335,517,251,431,512,75,210,82,653,806,351,454,399,155,628,719,558,846,408,222,339,385,288,142,80,987,352,145,767,51,715,204,847,984,64,2,424,831,225,176,990,504,425,819,670,676,579,407,170,201,49,693,764,162,498,625,451,696,394,509,907,1,760,208,277,617,549,754,749,202,970,366,386,198,539,677,641,185,119,714,278,800,46,226,99,664,106,758,417,389,265,971,976,320,783,485,551,668,823,237,880,532,459,889,580,230,114,649,933,561,547,89,363,866,168,60,334,23,372,503,254,871,270,594,977,241,735,526,654,340,769,188,164,895,299,885,129,750,522,194,115,131,308,409,428,879,815,429,279,955,645,622,540,259,445,243,951,630,706,227,771,93,848,197,100,529,510,123,200,748,656,565,326,678,513,882,84,124,700,516,777,101,61,427,218,20,751,294,712,941,598,713,492,636,506,471,346,832,581,726,936,130,807,691,721,741,592,730,7,116,184,248,928,292,533,412,520,260,779,380,94,883,708,695,220,24,3,244,739,672,440,347,418,541,830,289,950,216,863,646,21,246,377,937,161,667,160,473,477,597,262,786,432,638,999,384,788,272,29,514,478,383,95,190,87,400,34,602,850,240,595,381,43,420,77,954,169,253,403,829,136,358,909,205,126,923,763,341,26,388,864,258,784,179,104,745,878,744,627,186,833,887,139,674,463,727,593,152,199,406,865,436,175,949,552,915,849,484,140,857,554,844,840,929,803,382,134,461,935,435,182,994,276,442,584,965,722,983,604,324,924,943,109,809,724,618,782,315,952,53,113,120,671,894,981,992,969,291,666,353,499,698,91,149,569,694,144,37,759,651,47,300,523,553,206,14,148,822,606,709,413,519,57,6,33,817,787,681,255,174,571,545,290,548,843,150,434,263,961,805,27,876,177,669,821,349,736,379,318,271,267,235,855,795,792,338,942,92,757,738,842,59,839,298,731,437,657,391,76,171,71,457,10,125,765,633,647,862,845,411,997,535,305,566,648,12,282,733,925,137,443,108,70,325,497,475,905,835,776,908,466,98,689,917,596,414,444,524,564,11,52,811,679,774,953,621,716,958,893,559,25,362,888,481,686,582,619,264,133,655,967,172,838,189,286,690,111,449,978,660,608,898,446,369,813,5,195,212,158,537,50,642,66,467,804,232,410,209,599,755]","arrowright","","true","0","13","167","1000","[""0003_N1000_K0167_NOCLIQUE"",""0046_N1000_K0167_CLIQUE""]"
"","","","","","audio-keyboard-response","74","121553","0.0-61.0-0.0-1.0","","null","audio_feedback/right/coin01.mp3","null","","","","","0","13","167","1000","[""0003_N1000_K0167_NOCLIQUE"",""0046_N1000_K0167_CLIQUE""]"
"","","","","","canvas-keyboard-response","75","123348","0.0-62.0-0.0-0.0","","1040","","arrowright","[986,804,458,350,971,651,505,449,637,35,909,445,543,404,697,162,463,478,841,813,36,473,874,437,135,727,612,779,576,518,177,886,429,811,776,875,663,720,24,246,854,41,341,256,696,592,212,959,738,188,0,837,342,211,772,333,751,259,590,348,402,176,902,627,892,755,891,517,542,148,231,741,171,736,984,281,185,669,961,442,998,908,940,428,14,85,440,196,450,118,418,169,530,962,942,796,928,781,504,750,195,725,68,711,744,90,547,221,300,722,93,291,615,222,72,474,549,230,692,351,237,626,49,906,563,650,410,26,282,315,115,606,403,42,957,312,969,263,438,40,956,816,618,117,32,323,486,20,395,610,71,480,304,539,859,842,817,895,205,108,564,121,397,7,825,372,898,814,257,215,388,631,903,548,187,417,248,200,439,715,15,584,532,343,997,756,399,408,921,846,100,338,103,355,497,88,844,654,208,931,277,579,95,328,78,461,228,855,494,109,583,285,597,236,624,995,974,405,766,492,616,586,550,936,202,879,552,797,538,774,233,761,571,621,443,229,302,821,477,975,424,503,466,337,163,815,89,87,265,871,67,64,639,838,968,210,789,54,31,353,849,334,165,204,675,206,311,828,379,575,721,524,951,275,989,184,16,623,382,991,416,427,462,500,258,541,151,317,412,347,1,670,740,943,812,512,116,861,561,86,156,198,883,122,923,25,360,580,981,201,30,694,2,672,316,625,496,791,336,98,913,718,570,924,114,475,680,158,764,502,288,603,214,848,660,993,805,105,11,359,801,972,950,980,963,250,375,142,330,111,678,435,802,714,175,59,665,642,516,605,219,147,724,686,329,344,948,149,535,235,467,866,377,977,946,192,483,845,276,139,941,73,381,835,938,292,394,831,413,932,110,775,19,758,743,753,383,363,352,74,58,911,82,955,513,863,367,472,227,952,194,61,572,979,345,384,168,944,783,13,455,695,278,600,305,270,371,167,441,63,238,953,66,239,301,840,218,385,127,546,601,182,800,784,327,519,244,559,29,307,422,983,960,754,999,286,521,833,939,536,683,407,560,419,488,514,730,978,178,857,280,189,685,799,864,689,896,75,47,132,124,890,970,181,38,708,369,509,643,240,468,451,585,822,808,8,373,368,326,645,900,125,598,749,899,882,91,260,272,904,113,174,306,533,544,829,716,594,659,699,937,787,10,553,357,251,339,161,389,220,226,97,910,713,370,484,21,807,284,106,146,966,786,914,967,925,648,531,529,558,62,632,55,314,507,897,153,56,446,589,582,274,361,101,186,172,376,954,262,264,296,734,661,155,851,471,577,701,768,644,523,771,949,556,638,698,604,792,476,676,420,44,53,742,688,386,976,641,457,396,180,99,593,433,120,490,690,70,527,77,868,390,17,453,393,712,495,436,752,27,143,456,242,915,52,431,454,247,992,3,525,50,777,964,760,769,877,170,290,763,798,795,889,746,415,987,562,982,137,309,362,491,667,545,489,880,152,426,232,540,358,102,917,765,487,46,901,387,920,128,252,836,310,806,729,414,401,843,145,926,365,865,994,183,554,271,762,869,757,567,887,289,28,321,790,888,60,705,707,136,481,364,810,773,652,551,628,173,325,691,996,356,933,39,602,164,224,144,217,682,378,179,852,69,51,199,878,907,241,706,703,79,159,138,234,668,596,444,679,649,293,780,324,269,927,465,935,856,574,520,793,684,839,482,506,778,57,522,534,809,568,331,469,225,823,322,81,990,834,565,929,430,255,620,294,635,702,366,318,508,862,470,191,573,630,213,662,619,131,279,830,629,308,391,723,123,166,555,611,119,22,731,283,150,12,581,515,759,826,634,245,873,5,782,157,747,674,501,400,65,591,80,566,881,434,267,216,190,112,885,94,48,710,298,870,249,197,557,717,320,160,973,452,335,295,526,726,847,657,965,423,827,853,141,985,655,268,893,37,130,820,664,346,607,303,392,398,919,595,656,409,681,658,421,732,876,646,850,203,737,785,958,133,728,693,299,609,209,459,647,374,332,499,287,354,735,447,666,599,884,912,140,832,578,622,934,916,4,704,223,349,894,794,129,788,860,18,739,587,406,92,479,134,154,411,613,493,617,528,803,767,273,608,340,818,510,254,511,34,9,922,733,745,918,700,380,537,6,45,432,448,824,588,464,207,709,261,193,653,614,43,107,460,858,945,104,819,425,243,297,748,76,988,253,687,633,636,671,83,905,770,84,96,930,266,33,673,498,126,569,867,947,719,313,23,872,319,677,640,485]","arrowright","","true","0","14","150","1000","[""0044_N1000_K0150_NOCLIQUE"",""0011_N1000_K0150_CLIQUE""]"
"","","","","","audio-keyboard-response","76","124332","0.0-62.0-0.0-1.0","","null","audio_feedback/right/coin01.mp3","null","","","","","0","14","150","1000","[""0044_N1000_K0150_NOCLIQUE"",""0011_N1000_K0150_CLIQUE""]"
"","","","","","canvas-keyboard-response","77","125701","0.0-63.0-0.0-0.0","","622","","arrowright","[613,400,608,797,430,291,124,377,667,739,368,971,374,239,836,890,201,48,939,106,564,476,211,373,935,59,136,64,787,312,820,704,977,161,851,762,559,668,180,255,5,18,590,958,176,456,285,109,69,676,753,15,585,325,736,403,475,110,751,31,188,126,214,492,223,244,348,468,299,732,157,815,705,478,495,17,760,617,611,137,980,63,659,687,278,351,773,360,554,544,286,107,200,181,493,956,222,619,870,77,874,726,744,447,474,199,139,128,636,725,207,56,831,91,202,96,641,930,371,936,542,421,359,210,243,652,148,225,301,435,20,253,440,9,959,407,835,469,40,742,837,769,666,242,600,955,268,93,828,826,966,711,953,41,563,149,70,909,337,87,573,771,919,604,335,568,382,912,282,528,925,115,231,964,724,677,741,457,734,453,327,516,665,29,847,352,306,213,311,49,21,38,779,108,248,396,27,548,813,767,28,313,889,175,927,624,62,127,823,543,289,530,640,216,916,276,929,355,522,670,570,763,850,241,339,673,740,814,656,863,350,622,822,534,406,195,589,777,461,193,333,111,791,454,215,866,943,768,381,318,375,229,776,58,497,203,801,593,198,701,926,601,19,903,409,550,941,385,567,856,151,691,571,812,81,781,531,690,82,985,57,443,901,94,237,30,603,251,775,989,661,917,602,317,774,843,758,177,757,46,862,660,7,485,764,277,295,974,218,731,304,933,634,80,117,707,42,663,316,715,566,581,26,625,706,507,280,662,783,647,155,159,97,765,693,402,143,887,357,434,993,380,354,142,146,432,657,786,473,245,892,506,458,708,444,387,884,712,720,273,192,320,807,998,928,372,284,784,52,275,147,811,588,288,541,353,733,401,714,209,300,855,948,3,518,332,234,505,905,598,893,102,338,796,700,920,281,343,616,558,842,482,987,574,399,961,880,788,466,112,323,10,397,535,257,364,635,817,819,431,394,672,346,294,267,525,25,614,498,537,582,415,274,680,555,597,71,172,569,716,648,491,16,576,72,643,221,426,89,586,886,196,452,860,988,532,419,484,808,846,53,540,433,79,500,556,911,798,499,802,719,984,945,685,978,134,592,879,363,376,513,183,6,144,160,256,746,501,259,463,551,946,504,770,975,164,405,523,340,298,388,968,752,703,8,832,908,331,864,61,922,361,524,790,560,386,88,963,393,913,330,594,910,713,615,728,721,825,118,873,22,789,599,671,125,266,297,799,527,772,918,549,410,951,246,271,121,596,743,73,120,45,150,305,510,761,208,2,697,578,931,950,972,853,490,170,336,632,854,780,65,329,344,723,827,418,471,785,250,307,717,620,233,13,900,606,637,664,722,135,994,915,140,545,436,47,514,185,44,260,867,973,321,206,960,841,607,686,645,114,575,437,442,999,39,962,833,283,695,450,759,263,730,628,633,750,163,187,511,86,557,165,448,503,689,341,342,818,996,302,982,240,186,923,877,631,36,517,502,552,871,43,258,349,460,875,254,472,427,894,464,654,113,737,169,699,967,67,90,562,424,710,957,227,577,942,34,184,479,895,366,191,308,944,292,840,60,324,129,264,123,92,78,881,508,526,869,95,174,729,470,861,965,754,408,954,99,675,358,937,226,521,626,793,417,326,810,370,644,220,976,272,481,132,878,991,228,749,224,319,907,279,68,105,848,891,1,906,940,735,639,287,269,536,995,914,141,692,865,904,969,580,804,462,683,584,270,794,138,236,824,314,896,98,391,416,519,445,194,392,709,438,872,898,252,546,489,459,627,356,362,655,902,296,0,205,480,265,50,37,888,852,992,679,595,756,805,630,32,547,4,921,404,249,605,674,230,816,152,131,414,949,609,932,494,212,477,55,75,653,167,100,310,533,990,838,583,11,538,130,899,119,572,981,54,565,261,795,379,684,347,171,587,384,422,938,158,420,515,702,755,651,885,868,189,398,334,792,103,520,12,806,509,389,766,947,467,986,718,669,970,983,934,997,74,429,682,803,658,24,857,322,162,166,378,235,293,449,262,156,618,800,747,727,238,182,411,66,646,247,455,834,858,883,483,876,33,367,529,84,425,897,101,423,178,232,116,650,678,412,486,345,629,369,315,623,738,553,217,844,153,821,303,638,219,610,830,882,179,465,952,51,197,845,168,681,328,579,979,439,849,173,204,309,413,487,839,428,698,390,696,512,441,688,859,145,133,591,496,748,778,395,642,621,76,694,561,383,365,23,488,451,154,649,446,612,85,83,290,14,809,35,745,539,190,829,924,104,122,782]","arrowright","","true","0","15","150","1000","[""0016_N1000_K0150_NOCLIQUE"",""0061_N1000_K0150_CLIQUE""]"
"","","","","","audio-keyboard-response","78","126692","0.0-63.0-0.0-1.0","","null","audio_feedback/right/coin01.mp3","null","","","","","0","15","150","1000","[""0016_N1000_K0150_NOCLIQUE"",""0061_N1000_K0150_CLIQUE""]"
"","","","","","canvas-keyboard-response","79","128221","0.0-64.0-0.0-0.0","","773","","arrowleft","[167,777,998,778,257,560,73,821,880,159,522,835,186,443,985,460,324,200,448,38,26,900,690,883,69,148,727,745,432,989,877,89,590,939,469,139,714,435,87,387,999,809,164,106,612,314,822,661,815,30,365,750,823,449,182,827,297,401,825,241,594,813,322,277,757,950,695,610,541,997,943,91,39,231,126,327,523,606,593,385,115,428,303,562,631,579,237,158,875,474,345,620,710,54,507,407,976,175,218,81,451,15,765,140,166,246,553,932,144,472,738,23,923,548,941,643,686,834,358,393,44,199,491,781,743,736,762,913,515,713,774,957,533,217,632,759,398,689,204,629,983,896,886,367,205,573,136,201,271,729,844,618,529,746,600,329,103,623,156,395,128,56,857,819,646,454,239,816,991,74,206,583,698,797,544,717,183,110,711,171,500,831,761,77,660,930,169,274,162,696,789,408,66,972,46,264,536,293,34,298,453,86,478,19,346,265,332,18,882,663,528,370,190,956,173,657,331,456,924,262,994,549,371,766,704,83,836,429,180,626,840,193,768,862,50,795,41,621,362,431,29,858,433,301,851,954,636,111,925,552,811,357,352,361,122,501,658,315,33,928,386,477,988,154,848,902,604,459,347,2,894,978,10,43,542,150,70,712,216,439,920,359,259,699,654,798,948,391,207,464,865,255,335,855,508,326,411,639,772,506,296,420,25,679,114,170,208,849,518,596,12,369,935,934,438,608,742,40,977,931,850,492,64,874,157,498,37,897,261,6,571,685,125,615,681,279,232,892,651,764,251,909,895,376,42,581,752,866,404,227,968,475,380,647,344,292,800,786,94,982,511,687,958,470,732,673,859,396,197,908,591,236,926,975,824,946,107,945,697,225,338,383,192,642,368,147,284,76,224,390,47,545,330,565,496,582,382,780,219,847,613,682,588,574,803,512,82,703,55,209,872,153,967,861,467,468,323,364,283,479,499,8,959,101,174,996,614,88,458,873,160,336,172,966,744,740,276,531,586,592,707,488,189,907,302,337,741,802,93,487,820,683,758,96,75,116,179,905,773,731,779,79,305,275,48,321,917,84,481,662,195,28,659,67,108,853,692,222,970,929,49,455,694,9,516,634,739,90,405,513,640,688,482,653,215,27,839,790,718,457,969,62,366,887,228,842,846,287,95,577,603,13,619,914,248,675,299,235,785,652,143,340,134,486,278,539,445,288,320,363,240,837,735,510,308,123,721,14,425,149,97,413,184,343,309,402,601,852,609,427,833,754,938,804,693,810,319,702,828,716,120,674,113,185,981,304,476,494,426,191,520,906,625,252,965,509,919,440,212,415,269,141,578,266,912,242,356,771,57,664,638,706,334,678,466,818,270,211,530,223,633,342,124,769,749,442,399,645,256,598,119,668,121,127,557,936,555,35,480,563,535,753,502,295,52,995,104,53,463,312,348,670,152,801,311,916,422,418,756,566,893,829,519,434,723,979,444,854,32,940,316,805,489,406,129,755,964,551,649,3,733,605,796,575,748,378,416,864,59,751,720,80,202,490,684,233,483,734,589,911,944,446,4,576,263,776,409,17,672,226,648,782,644,430,572,373,282,532,953,665,559,16,397,71,22,462,410,637,922,724,656,354,300,719,105,701,181,992,417,45,505,876,168,60,792,569,885,198,984,841,68,709,650,867,375,249,465,258,973,888,918,622,78,493,497,921,187,942,794,280,889,163,561,99,879,109,784,890,537,268,949,770,310,414,328,51,543,616,524,135,527,221,355,286,986,21,243,691,461,832,290,787,372,98,272,556,838,424,860,450,933,960,384,624,728,812,570,587,767,680,339,843,910,213,546,7,760,151,521,447,666,990,31,1,962,306,878,525,220,289,92,238,881,974,677,947,177,61,58,379,630,845,558,952,118,473,891,307,20,72,550,869,993,188,281,504,599,131,830,230,423,130,485,737,868,388,726,400,11,722,585,595,161,374,381,318,350,471,133,763,436,747,203,165,145,635,155,628,676,564,715,584,229,627,955,540,611,899,547,863,394,85,937,294,273,452,100,871,503,360,317,806,730,856,253,987,793,285,351,580,63,903,567,260,961,0,112,826,377,705,65,244,267,725,437,788,607,870,669,963,808,884,137,817,814,349,353,325,5,291,534,667,142,392,617,403,602,254,655,971,700,484,176,24,514,214,568,389,146,901,234,245,517,898,915,132,333,791,419,313,597,421,341,247,178,441,927,641,196,904,36,495,250,708,980,671,783,117,210,138,775,412,194,554,526,807,799,102,538,951]","arrowleft","","true","0","16","133","1000","[""0093_N1000_K0133_CLIQUE"",""0042_N1000_K0133_NOCLIQUE""]"
"","","","","","audio-keyboard-response","80","129213","0.0-64.0-0.0-1.0","","null","audio_feedback/right/coin01.mp3","null","","","","","0","16","133","1000","[""0093_N1000_K0133_CLIQUE"",""0042_N1000_K0133_NOCLIQUE""]"
"","","","","","canvas-keyboard-response","81","130687","0.0-65.0-0.0-0.0","","740","","arrowright","[288,936,677,859,870,628,495,893,251,671,674,439,710,475,197,721,308,632,644,729,410,228,82,477,807,896,900,733,206,408,637,398,219,382,943,590,800,829,990,478,563,136,863,586,108,166,874,927,30,918,23,158,676,457,101,362,723,373,680,98,522,435,45,302,367,730,372,523,953,348,697,500,505,725,498,979,270,567,894,827,934,509,272,834,602,663,29,856,525,810,199,95,826,418,217,482,740,416,384,692,559,470,705,860,794,842,685,469,84,65,737,572,258,49,941,28,173,127,213,653,395,14,776,68,37,955,812,104,66,964,6,864,901,568,912,720,581,575,363,574,415,646,306,437,257,116,686,490,409,504,648,883,376,94,486,160,552,205,608,967,947,960,381,915,216,423,394,869,689,819,411,448,745,55,123,527,713,489,392,854,577,542,114,115,958,48,491,661,699,920,789,81,483,128,506,582,329,624,452,963,445,399,981,157,64,949,319,784,828,734,614,916,868,294,402,256,176,352,194,278,510,597,203,132,939,121,322,458,142,976,707,715,688,665,86,233,287,144,633,259,453,154,35,246,830,836,508,226,753,250,349,241,279,655,905,332,455,124,215,774,917,612,518,512,43,683,345,855,630,1,401,625,149,813,601,996,300,230,852,133,71,497,770,634,328,589,235,301,708,4,564,92,961,926,425,541,138,444,284,803,560,944,375,607,459,303,466,698,191,923,342,933,546,249,881,562,594,280,711,886,921,19,578,635,282,790,295,929,337,791,984,693,871,73,895,304,583,911,897,951,449,622,833,289,928,74,428,242,350,227,535,174,34,965,718,260,351,75,403,181,638,333,479,126,46,427,343,472,823,404,496,211,283,119,182,584,57,957,2,681,931,858,695,922,51,290,168,986,335,515,24,334,137,629,660,985,816,983,835,591,214,752,975,971,534,503,20,355,761,167,454,236,380,913,237,950,587,549,330,317,771,72,821,999,691,192,113,840,792,502,513,596,178,488,991,47,3,357,555,656,147,379,890,935,281,201,388,942,385,651,669,536,877,155,52,815,134,368,269,391,762,716,982,413,118,553,88,543,736,654,207,461,750,378,540,339,358,7,507,538,32,414,263,293,801,804,336,709,346,62,193,224,557,110,474,61,434,344,140,675,323,616,755,668,814,773,165,0,872,266,53,987,169,861,59,253,667,741,480,354,446,706,843,405,516,892,141,796,682,389,204,969,703,825,156,264,908,786,603,229,620,837,673,247,946,657,764,930,550,11,756,822,884,547,925,885,125,152,326,533,310,968,627,129,164,524,754,10,312,467,838,314,526,561,980,70,788,937,93,876,956,841,447,320,781,539,240,747,438,954,422,844,131,973,143,105,234,450,225,569,222,78,824,112,273,585,966,183,520,887,484,600,867,285,327,130,727,291,704,643,22,621,678,795,33,89,902,974,778,96,139,809,571,277,758,882,907,21,15,700,544,494,421,325,366,772,701,231,696,763,468,297,442,666,311,353,906,223,170,641,811,76,848,845,875,471,626,370,878,212,184,177,898,296,839,537,599,102,767,271,109,732,238,684,866,220,820,432,977,849,456,195,172,406,56,757,232,103,255,8,645,360,198,341,642,239,566,347,443,377,268,899,766,433,209,636,611,120,299,487,359,847,903,441,613,54,530,383,44,694,687,805,161,724,728,460,36,743,817,679,850,18,83,42,652,748,649,959,909,554,545,188,25,331,744,722,617,151,769,914,254,356,818,940,785,493,396,185,998,77,122,153,171,749,592,517,865,245,932,67,672,365,315,717,5,746,374,760,556,879,904,117,420,492,397,400,548,731,759,262,889,261,650,857,751,605,551,99,570,609,910,200,532,145,519,324,407,576,307,782,79,647,31,148,40,598,419,595,196,12,364,321,690,451,39,190,107,429,846,390,417,369,615,831,623,473,265,100,464,162,640,880,735,938,631,9,60,738,989,276,386,972,719,787,793,481,993,593,26,997,426,80,63,27,783,436,995,58,13,187,777,465,175,511,499,340,606,798,208,316,797,16,962,210,485,779,659,702,186,387,159,412,873,150,658,244,558,463,202,501,521,393,765,243,714,292,338,90,87,91,712,111,978,862,252,806,851,988,888,528,610,50,853,286,948,604,189,313,639,994,529,802,992,891,361,218,476,945,670,531,619,38,135,248,588,952,565,768,179,298,726,41,739,146,573,662,799,514,832,580,221,775,275,664,305,919,309,808,424,69,85,318,462,371,742,106,970,440,618,17,163,430,780,97,579,180,431,924,267,274]","arrowright","","true","0","17","133","1000","[""0014_N1000_K0133_NOCLIQUE"",""0095_N1000_K0133_CLIQUE""]"
"","","","","","audio-keyboard-response","82","131673","0.0-65.0-0.0-1.0","","null","audio_feedback/right/coin01.mp3","null","","","","","0","17","133","1000","[""0014_N1000_K0133_NOCLIQUE"",""0095_N1000_K0133_CLIQUE""]"
"","","","","","canvas-keyboard-response","83","133082","0.0-66.0-0.0-0.0","","648","","arrowleft","[551,247,734,141,460,918,281,748,759,313,400,947,849,424,384,883,340,278,599,489,968,215,803,158,408,901,865,684,82,685,547,548,7,332,71,593,999,232,10,42,553,90,485,965,301,441,94,740,165,879,287,602,49,9,264,25,783,116,870,776,845,320,358,652,414,727,710,841,873,895,718,28,909,114,352,774,689,124,286,222,745,657,483,941,638,328,74,608,167,816,24,805,461,564,639,219,392,541,624,544,902,721,859,601,11,498,954,782,695,860,840,736,190,280,138,468,519,402,792,588,612,605,692,477,197,997,322,869,379,791,732,842,817,419,389,770,145,34,948,245,733,83,336,403,681,768,465,958,306,778,425,864,142,974,772,737,70,797,497,838,669,931,44,529,413,857,662,387,815,808,330,945,750,131,594,570,670,700,903,858,705,248,872,275,633,169,79,875,399,343,391,448,356,630,327,978,787,855,329,385,279,348,698,775,921,660,603,421,843,723,338,133,351,0,319,984,395,507,347,635,359,648,472,628,37,294,253,317,963,180,784,297,690,91,443,218,60,940,217,534,573,887,896,595,559,243,590,51,676,214,204,428,711,716,810,995,354,439,236,194,891,749,796,938,708,852,671,429,38,333,863,966,427,223,492,877,755,473,788,511,801,878,885,21,162,151,946,203,714,596,152,846,839,140,556,522,505,862,982,345,234,990,767,917,41,261,964,486,128,121,135,910,73,339,341,56,237,178,363,366,467,350,951,868,496,298,325,383,619,720,125,26,712,98,900,184,224,823,228,696,321,927,552,440,382,922,844,571,526,848,543,376,434,451,202,252,323,765,470,637,827,646,191,30,33,661,436,285,923,137,851,826,99,19,680,367,176,953,926,908,462,707,715,36,952,592,249,295,192,802,251,653,3,777,957,977,256,861,431,96,904,200,246,68,18,134,499,807,31,563,527,674,935,85,811,372,632,364,853,362,404,668,956,691,242,884,993,659,514,892,282,867,850,305,950,575,474,758,168,503,833,586,415,6,130,238,677,743,584,181,825,933,65,581,269,394,794,520,309,47,105,970,239,687,175,764,986,314,752,793,302,620,686,244,230,115,724,722,702,150,170,606,172,484,582,210,979,307,561,641,975,12,365,463,154,334,600,785,75,15,433,160,925,502,907,618,226,890,159,272,515,578,972,378,136,647,193,672,540,156,920,800,454,580,613,259,949,678,634,478,139,43,374,955,326,981,199,506,622,110,447,542,913,538,820,818,164,756,355,806,412,914,516,227,739,928,673,337,494,14,699,117,836,731,495,779,45,679,112,288,220,53,854,549,446,255,89,62,943,550,912,557,407,991,310,798,4,614,303,703,59,831,683,299,265,63,100,262,539,171,300,1,20,113,476,163,866,717,560,513,390,704,277,241,416,655,257,523,81,987,195,267,95,577,795,126,682,16,380,97,491,459,746,29,642,119,166,730,292,406,725,397,753,897,546,369,585,525,983,888,357,469,583,396,464,911,258,537,493,629,837,235,645,804,937,23,92,456,61,915,211,973,829,290,212,611,233,93,266,104,664,701,80,452,621,118,409,735,291,254,449,932,828,153,976,373,763,665,835,996,572,40,482,481,201,742,510,444,324,86,654,830,186,623,106,814,960,894,876,574,536,649,886,488,627,344,555,360,509,432,13,874,693,819,273,349,786,189,566,103,458,532,283,694,177,899,375,417,183,185,916,504,615,129,308,2,959,980,381,149,609,656,318,410,54,942,508,944,457,123,32,87,847,393,466,52,250,565,881,411,188,521,157,108,790,769,101,342,643,401,371,207,312,754,813,625,604,69,626,274,728,77,747,206,834,293,535,377,530,8,667,155,562,50,591,276,709,587,174,490,589,726,173,88,569,423,426,799,889,568,780,558,821,455,967,688,386,420,196,57,84,971,998,122,66,304,650,812,528,781,284,55,697,994,882,961,335,766,512,531,809,738,706,353,442,985,545,666,479,229,438,240,761,5,35,144,209,316,76,989,422,146,132,388,607,576,501,161,939,636,729,658,58,500,368,148,331,143,17,289,518,179,663,435,597,929,78,271,475,450,225,934,771,370,182,208,824,72,992,617,651,187,296,109,719,744,631,198,579,533,487,906,898,46,773,880,751,111,567,398,554,147,713,789,205,213,405,361,437,260,598,760,430,919,741,480,822,107,216,263,346,67,610,268,962,893,524,221,453,127,988,832,120,856,616,762,102,905,930,22,969,924,445,39,231,270,871,315,64,936,311,48,757,471,644,418,27,675,517,640]","arrowleft","","true","0","18","117","1000","[""0031_N1000_K0117_CLIQUE"",""0030_N1000_K0117_NOCLIQUE""]"
"","","","","","audio-keyboard-response","84","134073","0.0-66.0-0.0-1.0","","null","audio_feedback/right/coin01.mp3","null","","","","","0","18","117","1000","[""0031_N1000_K0117_CLIQUE"",""0030_N1000_K0117_NOCLIQUE""]"
"","","","","","canvas-keyboard-response","85","135590","0.0-67.0-0.0-0.0","","780","","arrowright","[599,393,198,904,550,950,701,226,652,21,725,206,131,372,513,175,473,273,900,520,620,617,333,879,197,167,229,44,10,378,164,207,641,517,360,924,156,376,459,743,463,176,775,802,685,957,244,884,621,436,567,83,650,992,420,276,720,178,417,958,383,160,724,648,795,803,292,20,737,538,462,859,728,603,969,875,635,134,243,282,351,827,503,159,194,304,518,856,673,78,946,530,381,853,579,111,842,42,801,454,172,485,347,504,181,999,634,736,602,817,786,703,569,678,37,558,101,211,329,675,373,232,470,931,12,828,288,784,515,870,363,690,917,639,115,338,430,455,876,962,341,642,589,63,166,524,479,449,849,972,861,582,509,394,930,889,214,318,35,753,506,476,839,721,72,362,898,773,410,390,700,519,600,458,271,608,625,30,406,628,964,32,339,766,981,835,193,573,195,739,446,138,305,486,831,574,938,919,819,460,371,283,128,738,34,836,177,374,756,993,613,358,653,808,451,407,349,170,68,543,264,965,67,313,185,894,64,565,55,787,262,289,971,595,359,755,385,204,868,806,82,295,611,284,791,424,51,456,989,287,294,512,612,683,529,548,397,953,717,274,429,797,441,995,852,699,873,431,354,604,681,23,974,794,584,251,148,672,103,629,719,818,730,493,217,269,352,632,190,796,830,863,881,413,561,609,439,535,929,846,692,616,447,592,168,551,399,862,614,421,117,49,714,392,342,527,970,494,234,187,8,483,369,907,18,442,906,139,15,911,966,257,903,578,384,610,667,174,816,61,847,210,658,309,571,682,891,60,98,307,988,316,126,914,488,866,696,415,275,583,319,657,631,651,7,222,199,85,677,426,680,162,783,843,102,118,337,387,65,912,901,913,100,475,59,942,432,747,899,306,761,869,605,31,377,708,542,260,57,391,742,17,322,893,365,750,38,109,960,227,47,826,748,557,909,92,380,523,555,220,130,785,183,53,412,444,662,788,66,440,95,834,155,851,355,487,219,704,923,464,46,968,79,469,326,223,697,310,146,127,202,256,507,245,776,510,122,133,414,250,622,654,14,716,820,88,726,480,323,840,765,1,656,694,191,593,36,500,687,674,937,411,6,764,973,710,4,864,961,637,525,238,54,62,575,246,389,147,975,626,151,952,563,514,607,553,278,209,684,253,106,986,772,949,813,186,706,478,940,153,636,812,425,448,452,597,498,502,368,386,366,224,240,334,302,272,231,382,562,838,695,768,594,646,998,586,375,497,81,774,33,793,790,644,601,769,2,173,433,546,627,887,983,920,350,110,712,438,925,258,770,587,43,335,125,332,268,427,987,936,871,121,709,171,556,93,52,96,129,777,314,959,422,932,401,120,809,161,895,767,744,759,799,395,888,740,327,921,824,28,107,315,890,114,408,293,980,247,150,136,3,71,691,844,668,236,572,396,749,453,896,361,112,345,50,539,877,296,560,249,242,303,591,286,882,643,404,647,540,588,105,908,865,263,528,825,547,261,792,805,996,409,468,606,291,821,477,670,320,403,874,729,482,752,474,872,671,845,867,780,978,763,505,531,492,832,324,564,471,74,255,75,157,22,576,624,841,941,40,356,534,943,301,566,221,277,829,77,317,727,698,663,457,585,837,445,549,762,954,437,205,192,184,25,212,299,915,5,559,715,991,746,880,400,979,541,237,364,665,16,722,259,948,544,0,461,398,533,91,143,522,279,733,203,239,416,495,216,751,58,346,402,990,702,779,926,734,581,357,145,418,649,119,388,918,758,679,481,465,666,598,713,370,705,228,270,467,99,188,718,123,885,854,196,189,108,281,976,655,618,823,570,623,645,782,149,580,179,94,241,69,928,858,577,664,405,939,945,781,267,19,883,910,200,686,137,152,24,321,660,348,878,300,73,218,800,379,285,165,933,501,814,916,516,434,11,56,693,754,741,947,590,745,711,822,86,308,311,182,252,886,934,144,552,526,491,230,848,428,13,336,688,132,955,472,771,860,113,76,163,760,435,419,922,124,994,87,353,225,297,423,248,48,208,70,343,757,140,26,897,596,521,41,977,484,169,944,89,213,201,27,496,340,630,80,154,325,811,997,804,90,280,508,97,142,676,850,39,689,141,984,810,833,633,312,967,985,511,537,180,367,9,554,855,443,265,29,857,489,935,545,723,266,927,328,892,532,619,778,568,331,290,640,233,615,905,490,963,789,735,707,235,104,536,982,638,84,815,298,659,902,807,450,215,798,116,330,45,732,661,731,466,956,951,344,669,158,254,135,499]","arrowright","","true","0","19","117","1000","[""0017_N1000_K0117_NOCLIQUE"",""0077_N1000_K0117_CLIQUE""]"
"","","","","","audio-keyboard-response","86","136572","0.0-67.0-0.0-1.0","","null","audio_feedback/right/coin01.mp3","null","","","","","0","19","117","1000","[""0017_N1000_K0117_NOCLIQUE"",""0077_N1000_K0117_CLIQUE""]"
