"success","timeout","failed_images","failed_audio","failed_video","trial_type","trial_index","time_elapsed","internal_node_id","view_history","rt","stimulus","response","nodes_order","correct_response","block_index","presentation_index","clique_size","graph_size","graphs_names","graphs_couple","accuracy"
"true","false","[]","[]","[]","preload","0","476","0.0-0.0","","","","","","","","","","","","",""
"","","","","","pavlovia","1","1611","0.0-1.0","","","","","","","","","","","","",""
"","","","","","instructions","2","20209","0.0-2.0","[{""page_index"":0,""viewing_time"":9803},{""page_index"":1,""viewing_time"":8793}]","18596","","","","","","","","","","",""
"true","false","[]","[]","[]","preload","3","25262","0.0-3.0","","","","","","","","","","","","",""
"","","","","","instructions","4","285249","0.0-4.0","[{""page_index"":0,""viewing_time"":4999},{""page_index"":1,""viewing_time"":3570},{""page_index"":2,""viewing_time"":2308},{""page_index"":3,""viewing_time"":16665},{""page_index"":4,""viewing_time"":5406},{""page_index"":3,""viewing_time"":3041},{""page_index"":4,""viewing_time"":2607},{""page_index"":3,""viewing_time"":10067},{""page_index"":4,""viewing_time"":1934},{""page_index"":3,""viewing_time"":33028},{""page_index"":4,""viewing_time"":1640},{""page_index"":3,""viewing_time"":6002},{""page_index"":4,""viewing_time"":1216},{""page_index"":3,""viewing_time"":2247},{""page_index"":4,""viewing_time"":697},{""page_index"":3,""viewing_time"":1668},{""page_index"":4,""viewing_time"":797},{""page_index"":3,""viewing_time"":601},{""page_index"":4,""viewing_time"":337},{""page_index"":3,""viewing_time"":1143},{""page_index"":4,""viewing_time"":554},{""page_index"":5,""viewing_time"":3448},{""page_index"":6,""viewing_time"":2509},{""page_index"":7,""viewing_time"":2597},{""page_index"":8,""viewing_time"":1434},{""page_index"":9,""viewing_time"":1420},{""page_index"":10,""viewing_time"":1211},{""page_index"":11,""viewing_time"":979},{""page_index"":12,""viewing_time"":1206},{""page_index"":13,""viewing_time"":3105},{""page_index"":14,""viewing_time"":2014},{""page_index"":15,""viewing_time"":1335},{""page_index"":16,""viewing_time"":1464},{""page_index"":17,""viewing_time"":646},{""page_index"":18,""viewing_time"":716},{""page_index"":19,""viewing_time"":1695},{""page_index"":20,""viewing_time"":1339},{""page_index"":21,""viewing_time"":2017},{""page_index"":22,""viewing_time"":712},{""page_index"":23,""viewing_time"":747},{""page_index"":24,""viewing_time"":1297},{""page_index"":25,""viewing_time"":640},{""page_index"":26,""viewing_time"":910},{""page_index"":27,""viewing_time"":5520},{""page_index"":28,""viewing_time"":8196},{""page_index"":27,""viewing_time"":796},{""page_index"":28,""viewing_time"":3457},{""page_index"":29,""viewing_time"":2872},{""page_index"":30,""viewing_time"":2072},{""page_index"":31,""viewing_time"":3737},{""page_index"":32,""viewing_time"":2137},{""page_index"":33,""viewing_time"":4931},{""page_index"":34,""viewing_time"":6737},{""page_index"":35,""viewing_time"":18440},{""page_index"":36,""viewing_time"":3659},{""page_index"":37,""viewing_time"":8815},{""page_index"":38,""viewing_time"":6219},{""page_index"":39,""viewing_time"":8579},{""page_index"":40,""viewing_time"":6691},{""page_index"":41,""viewing_time"":6051},{""page_index"":42,""viewing_time"":4101},{""page_index"":43,""viewing_time"":2179},{""page_index"":44,""viewing_time"":3478},{""page_index"":45,""viewing_time"":6876},{""page_index"":46,""viewing_time"":1534},{""page_index"":47,""viewing_time"":2287},{""page_index"":48,""viewing_time"":3206},{""page_index"":49,""viewing_time"":1019},{""page_index"":50,""viewing_time"":1365},{""page_index"":51,""viewing_time"":1064}]","259982","","","","","","","","","","",""
"","","","","","instructions","5","291155","0.0-5.0","[{""page_index"":0,""viewing_time"":5906}]","5906","","","","","","","","","","",""
"true","false","[]","[]","[]","preload","6","295804","0.0-6.0","","","","","","","","","","","","",""
"","","","","","image-keyboard-response","7","302073","0.0-7.0","","6263","tutorial/task_familiarization_images/part 1/01_N160_K90_cliqueRight_question1.PNG"," ","","","","","","","","",""
"","","","","","image-keyboard-response","8","305705","0.0-8.0","","3631","tutorial/task_familiarization_images/part 1/02_N160_K90_cliqueRight_question2.PNG"," ","","","","","","","","",""
"","","","","","image-keyboard-response","9","309406","0.0-9.0","","3700","tutorial/task_familiarization_images/part 1/03_N160_K90_cliqueRight_question3.PNG","arrowright","","","","","","","","",""
"","","","","","image-keyboard-response","10","311138","0.0-10.0","","1730","tutorial/task_familiarization_images/part 1/04_N160_K90_cliqueRight_solution.PNG"," ","","","","","","","","",""
"","","","","","image-keyboard-response","11","316387","0.0-11.0","","5248","tutorial/task_familiarization_images/part 1/05_N160_K65_cliqueRight_question1.PNG"," ","","","","","","","","",""
"","","","","","image-keyboard-response","12","319781","0.0-12.0","","3393","tutorial/task_familiarization_images/part 1/06_N160_K65_cliqueRight_question2.PNG"," ","","","","","","","","",""
"","","","","","image-keyboard-response","13","323215","0.0-13.0","","3434","tutorial/task_familiarization_images/part 1/07_N160_K65_cliqueRight_question3.PNG","arrowright","","","","","","","","",""
"","","","","","image-keyboard-response","14","324536","0.0-14.0","","1320","tutorial/task_familiarization_images/part 1/08_N160_K65_cliqueRight_solution.PNG"," ","","","","","","","","",""
"","","","","","image-keyboard-response","15","327069","0.0-15.0","","2532","tutorial/task_familiarization_images/part 1/09_N160_K50_cliqueLeft_question1.PNG"," ","","","","","","","","",""
"","","","","","image-keyboard-response","16","332365","0.0-16.0","","5295","tutorial/task_familiarization_images/part 1/10_N160_K50_cliqueLeft_question2.PNG"," ","","","","","","","","",""
"","","","","","image-keyboard-response","17","334169","0.0-17.0","","1802","tutorial/task_familiarization_images/part 1/11_N160_K50_cliqueLeft_question3.PNG","arrowleft","","","","","","","","",""
"","","","","","image-keyboard-response","18","336405","0.0-18.0","","2235","tutorial/task_familiarization_images/part 1/12_N160_K50_cliqueLeft_solution.PNG"," ","","","","","","","","",""
"","","","","","image-keyboard-response","19","340757","0.0-19.0","","4350","tutorial/task_familiarization_images/part 1/13_N160_K80_cliqueLeft_question1.PNG"," ","","","","","","","","",""
"","","","","","image-keyboard-response","20","341703","0.0-20.0","","946","tutorial/task_familiarization_images/part 1/14_N160_K80_cliqueLeft_question2.PNG"," ","","","","","","","","",""
"","","","","","image-keyboard-response","21","342753","0.0-21.0","","1050","tutorial/task_familiarization_images/part 1/15_N160_K80_cliqueLeft_question3.PNG","arrowleft","","","","","","","","",""
"","","","","","image-keyboard-response","22","343762","0.0-22.0","","1008","tutorial/task_familiarization_images/part 1/16_N160_K80_cliqueLeft_solution.PNG"," ","","","","","","","","",""
"","","","","","image-keyboard-response","23","348504","0.0-23.0","","4741","tutorial/task_familiarization_images/part 1/17_N160_K40_cliqueRight_question1.PNG"," ","","","","","","","","",""
"","","","","","image-keyboard-response","24","350671","0.0-24.0","","2166","tutorial/task_familiarization_images/part 1/18_N160_K40_cliqueRight_question2.PNG"," ","","","","","","","","",""
"","","","","","image-keyboard-response","25","353215","0.0-25.0","","2543","tutorial/task_familiarization_images/part 1/19_N160_K40_cliqueRight_question3.PNG","arrowright","","","","","","","","",""
"","","","","","image-keyboard-response","26","355926","0.0-26.0","","2711","tutorial/task_familiarization_images/part 1/20_N160_K40_cliqueRight_solution.PNG"," ","","","","","","","","",""
"","","","","","image-keyboard-response","27","358563","0.0-27.0","","2636","tutorial/task_familiarization_images/part 1/21_N160_K70_cliqueLeft_question1.PNG"," ","","","","","","","","",""
"","","","","","image-keyboard-response","28","360014","0.0-28.0","","1446","tutorial/task_familiarization_images/part 1/22_N160_K70_cliqueLeft_question2.PNG"," ","","","","","","","","",""
"","","","","","image-keyboard-response","29","360451","0.0-29.0","","436","tutorial/task_familiarization_images/part 1/23_N160_K70_cliqueLeft_question3.PNG","arrowleft","","","","","","","","",""
"","","","","","image-keyboard-response","30","361267","0.0-30.0","","816","tutorial/task_familiarization_images/part 1/24_N160_K70_cliqueLeft_solution.PNG"," ","","","","","","","","",""
"true","false","[]","[]","[]","preload","31","363970","0.0-31.0","","","","","","","","","","","","",""
"","","","","","image-keyboard-response","32","372885","0.0-32.0","","8914","tutorial/task_familiarization_images/part 2/01_160_80_cliqueLeft_withFeedback_1.PNG"," ","","","","","","","","",""
"","","","","","image-keyboard-response","33","384580","0.0-33.0","","11694","tutorial/task_familiarization_images/part 2/02_160_80_cliqueLeft_withFeedback_1.PNG"," ","","","","","","","","",""
"","","","","","image-keyboard-response","34","387144","0.0-34.0","","2564","tutorial/task_familiarization_images/part 2/03_160_80_cliqueLeft_withFeedback_3.PNG","arrowleft","","","","","","","","",""
"","","","","","image-keyboard-response","35","393580","0.0-35.0","","6434","tutorial/task_familiarization_images/part 2/04_160_80_cliqueLeft_withFeedback_correct.PNG"," ","","","","","","","","",""
"","","","","","image-keyboard-response","36","398685","0.0-36.0","","5101","tutorial/task_familiarization_images/part 2/05_160_55_cliqueRight_withFeedback_1.PNG"," ","","","","","","","","",""
"","","","","","image-keyboard-response","37","401489","0.0-37.0","","2803","tutorial/task_familiarization_images/part 2/06_160_55_cliqueRight_withFeedback_2.PNG"," ","","","","","","","","",""
"","","","","","image-keyboard-response","38","403207","0.0-38.0","","1717","tutorial/task_familiarization_images/part 2/07_160_55_cliqueRight_withFeedback_3.PNG","arrowright","","","","","","","","",""
"","","","","","image-keyboard-response","39","408340","0.0-39.0","","5132","tutorial/task_familiarization_images/part 2/08_160_55_cliqueRight_withFeedback_correct.PNG"," ","","","","","","","","",""
"","","","","","image-keyboard-response","40","413666","0.0-40.0","","5325","tutorial/task_familiarization_images/part 2/09_160_70_cliqueLeft_withFeedback_1.PNG"," ","","","","","","","","",""
"","","","","","image-keyboard-response","41","414094","0.0-41.0","","427","tutorial/task_familiarization_images/part 2/10_160_70_cliqueLeft_withFeedback_2.PNG"," ","","","","","","","","",""
"","","","","","image-keyboard-response","42","414508","0.0-42.0","","411","tutorial/task_familiarization_images/part 2/11_160_70_cliqueLeft_withFeedback_3.PNG","arrowleft","","","","","","","","",""
"","","","","","image-keyboard-response","43","416927","0.0-43.0","","2418","tutorial/task_familiarization_images/part 2/12_160_70_cliqueLeft_withFeedback_correct.PNG"," ","","","","","","","","",""
"","","","","","survey-html-form","44","422990","0.0-44.0","","6062","","{""gender"":""female"",""age"":""32""}","","","","","","","","",""
"","","","","","instructions","45","438672","0.0-45.0","[{""page_index"":0,""viewing_time"":15682}]","15682","","","","","","","","","","",""
"true","","","","","fullscreen","46","442951","0.0-47.0","","","","","","","","","","","","",""
"","","","","","canvas-keyboard-response","47","452684","0.0-48.0-0.0-0.0","","8501",""," ","[975,804,96,928,714,729,48,306,460,142,267,887,414,866,835,837,896,881,602,965,658,996,432,411,860,176,202,147,967,963,550,495,718,869,498,764,284,762,644,4,721,810,735,325,582,109,680,957,76,619,184,500,465,723,225,138,185,421,763,872,828,898,679,584,463,21,97,140,163,924,315,731,65,51,914,451,480,628,855,479,464,77,256,571,788,445,409,39,244,312,671,253,503,209,706,945,695,936,50,814,901,297,532,61,437,621,875,33,522,476,42,533,236,436,15,12,288,134,462,886,449,899,108,941,702,976,419,52,845,394,374,599,337,32,722,70,771,338,877,979,973,153,514,647,774,470,930,3,22,71,789,559,870,491,528,199,31,598,978,365,990,29,916,150,888,919,732,221,851,304,23,167,67,634,982,631,330,53,125,738,265,935,341,776,9,953,151,469,121,531,574,871,2,201,405,971,262,675,20,149,815,398,11,406,703,527,717,932,106,154,656,358,981,298,355,87,272,556,783,466,756,524,613,276,520,483,873,580,381,991,83,336,241,667,890,959,403,649,892,439,737,203,607,626,726,356,237,277,198,390,193,447,588,751,937,329,175,909,557,351,841,995,214,538,590,274,645,512,363,799,885,57,515,313,205,186,757,768,831,985,840,354,934,120,643,993,790,230,563,795,478,72,798,744,92,633,492,249,966,676,40,347,915,309,537,372,797,510,118,453,793,612,668,345,319,669,327,811,44,627,292,670,829,903,825,720,38,693,922,204,716,5,983,282,213,383,334,505,497,758,467,555,196,416,594,740,440,579,506,754,832,767,917,781,766,328,688,64,252,852,490,296,596,585,923,733,169,548,499,552,782,299,158,792,320,727,904,207,569,399,473,179,698,786,704,927,739,494,322,129,393,826,964,778,889,218,501,266,956,833,820,232,780,712,587,650,270,765,711,617,410,455,438,657,576,946,333,812,819,49,625,743,111,992,114,148,456,74,84,189,933,8,539,55,742,326,434,618,37,865,156,441,413,278,684,375,317,82,85,371,910,974,24,41,949,364,43,144,124,987,308,261,508,255,59,970,368,382,529,311,772,604,960,646,939,459,561,62,370,210,73,448,200,344,103,989,715,685,736,545,734,343,713,235,431,113,710,171,100,0,412,931,191,663,534,386,246,340,681,14,654,502,285,882,271,342,551,760,900,446,19,433,63,392,357,546,575,567,517,884,938,293,651,862,844,287,423,310,222,348,553,141,947,257,652,787,836,784,730,807,286,564,543,998,859,661,86,749,60,233,897,748,395,664,424,47,770,391,402,400,228,521,362,231,396,655,918,248,116,577,168,913,10,566,46,332,834,422,389,665,269,183,132,135,136,753,318,164,283,581,750,824,707,948,857,258,316,188,152,988,746,639,305,525,523,101,701,653,672,417,518,260,894,430,600,601,324,660,346,119,682,408,69,544,648,906,474,206,303,28,511,689,999,302,127,352,475,673,642,562,595,867,350,110,921,779,259,570,240,133,104,920,245,777,874,220,858,842,950,603,289,823,90,486,139,709,217,638,263,13,854,366,816,280,803,165,986,487,800,279,250,801,905,194,192,984,883,951,66,641,929,387,401,568,27,719,944,806,541,388,794,540,955,458,190,962,301,708,404,666,68,468,353,247,542,980,16,677,18,339,427,692,583,830,291,155,335,477,117,893,489,850,849,378,26,281,912,880,143,112,572,839,359,694,45,180,146,420,659,254,450,868,700,761,605,115,853,614,481,493,629,131,98,397,902,482,519,349,822,290,821,926,444,504,586,513,407,385,907,226,435,773,157,88,25,925,174,635,30,161,805,636,813,79,507,251,637,687,373,1,943,208,578,182,197,560,454,827,160,547,215,242,940,606,802,615,972,95,747,536,591,452,17,818,170,891,632,107,769,54,418,35,785,58,977,442,958,516,99,608,56,471,741,611,429,488,166,755,34,623,93,775,484,808,809,321,172,895,229,162,968,616,592,105,954,159,863,509,565,952,212,705,610,273,696,554,961,300,307,211,428,457,181,878,791,848,496,724,264,630,6,796,243,609,75,969,683,415,377,662,843,597,360,549,123,593,234,361,535,173,178,759,911,219,314,216,942,876,485,472,674,624,224,879,847,686,622,425,846,295,268,369,573,128,558,275,91,690,223,530,461,239,728,89,7,838,331,102,187,725,78,861,697,137,384,678,699,36,426,294,94,994,81,367,526,376,238,323,620,145,817,227,195,745,640,130,691,380,589,864,856,443,126,752,122,379,997,908,80,177]","arrowleft","0","0","300","1000","[""0086_N1000_K0300_CLIQUE"",""0086_N1000_K0300_NOCLIQUE""]","",""
"","","","","","audio-keyboard-response","48","453770","0.0-48.0-0.0-1.0","","null","audio_feedback/shuffles/shuffle01.mp3","null","","","0","0","300","1000","[""0086_N1000_K0300_CLIQUE"",""0086_N1000_K0300_NOCLIQUE""]","",""
"","","","","","canvas-keyboard-response","49","454969","0.0-48.1-0.1-0.1","","23",""," ","[271,848,453,896,509,447,454,227,539,892,670,839,316,175,92,849,756,990,502,788,15,554,192,627,534,850,309,956,213,846,503,527,113,307,234,317,981,412,183,517,632,728,842,257,860,378,145,803,513,11,561,759,251,638,23,959,111,53,707,789,514,59,530,215,380,651,727,810,865,488,838,620,244,551,520,370,852,162,343,407,406,430,717,44,498,214,782,184,813,993,672,375,762,442,7,699,825,127,360,689,424,653,72,42,132,559,933,621,469,350,109,584,858,13,856,624,312,394,928,941,640,492,721,151,484,500,901,474,337,635,634,922,668,364,446,776,766,625,27,870,643,140,739,483,878,596,182,908,357,25,210,78,29,445,305,863,159,238,648,95,220,907,533,794,361,898,961,552,206,680,249,177,656,542,808,570,599,471,683,814,573,793,497,415,774,547,973,403,329,823,459,176,433,580,562,778,649,157,4,326,682,90,321,708,408,524,493,398,440,516,743,487,991,231,617,65,588,322,50,461,37,605,889,401,555,432,929,108,101,519,402,41,46,507,924,675,992,805,988,154,362,420,968,482,311,353,324,12,724,6,218,122,421,506,691,558,796,780,84,831,723,255,987,874,563,10,86,393,171,853,216,188,423,921,685,757,247,295,418,119,843,228,700,217,169,604,969,560,129,664,916,971,773,603,349,148,190,335,868,341,927,949,57,765,164,368,356,200,223,595,268,512,786,49,628,703,976,385,167,532,80,879,196,339,535,518,97,771,660,229,695,267,106,419,495,246,40,582,28,746,872,950,435,861,354,693,198,669,817,909,104,550,260,840,641,410,531,925,297,887,476,34,282,958,155,291,351,170,890,367,704,812,60,978,245,986,340,456,934,413,760,655,618,851,79,761,525,467,694,644,626,156,338,75,288,422,388,301,684,816,984,304,884,411,665,478,652,363,855,515,134,608,886,94,70,8,211,745,82,871,256,425,77,997,615,83,779,178,221,791,980,465,576,504,278,882,494,587,100,975,942,279,667,147,982,508,962,847,966,828,741,937,537,877,239,572,597,905,45,951,126,455,259,690,428,677,85,470,264,639,189,749,149,606,185,141,631,733,199,763,797,313,798,254,348,2,143,613,289,777,168,893,836,417,160,581,713,904,955,342,609,458,439,568,917,139,328,121,286,811,395,663,614,894,944,47,489,688,409,864,880,384,373,764,248,662,715,575,285,899,318,676,829,144,379,697,325,496,333,136,820,179,701,462,661,564,330,74,262,426,947,607,55,165,76,687,920,174,252,452,427,800,979,158,755,142,999,400,115,226,263,735,940,545,21,906,261,436,250,61,658,163,965,191,923,926,473,824,903,740,336,612,389,120,732,772,712,207,963,900,310,918,600,96,714,867,935,585,20,835,553,280,671,123,81,399,709,767,93,957,275,752,443,284,875,344,235,954,290,481,202,678,919,939,948,770,397,225,22,233,501,566,830,292,114,912,314,706,911,526,39,67,888,994,862,332,371,33,429,137,103,630,593,540,205,710,197,258,1,133,277,657,931,583,821,71,989,150,619,486,434,203,287,468,308,729,14,799,204,548,549,742,936,382,546,73,377,62,444,574,18,392,945,391,105,822,352,801,505,611,895,543,334,224,819,266,807,89,208,731,702,659,854,698,186,834,66,881,750,650,369,637,866,571,567,734,194,358,616,366,747,768,557,556,802,983,673,118,914,883,720,441,38,818,686,283,219,281,565,331,48,269,102,31,769,35,460,592,63,241,479,236,30,265,754,960,490,230,296,43,974,964,578,193,253,54,538,437,528,577,232,636,790,647,711,633,138,475,783,781,485,69,523,736,996,450,859,541,9,19,52,804,591,405,897,36,131,87,827,99,995,610,844,705,758,180,833,910,88,787,472,16,173,237,135,386,569,116,457,511,725,696,302,372,451,274,5,932,726,181,985,953,273,270,601,355,645,17,26,64,58,293,323,815,873,56,529,775,594,826,414,806,298,172,837,359,477,319,112,499,522,654,32,125,365,885,128,738,586,719,161,153,946,51,730,792,130,300,374,744,967,306,195,146,590,449,915,536,438,222,589,938,692,544,303,943,383,68,521,152,201,396,480,753,117,952,977,299,622,24,674,166,320,466,681,902,510,272,998,0,187,748,315,294,124,431,784,623,243,276,416,212,448,869,107,347,579,913,722,642,970,716,98,891,242,718,795,666,751,3,327,809,240,832,390,930,387,845,404,737,785,381,464,110,841,91,209,857,376,679,463,646,346,602,972,629,876,345,491,598]","arrowleft","0","0","300","1000","[""0086_N1000_K0300_CLIQUE"",""0086_N1000_K0300_NOCLIQUE""]","",""
"","","","","","audio-keyboard-response","50","456045","0.0-48.1-0.1-1.1","","null","audio_feedback/shuffles/shuffle01.mp3","null","","","0","0","300","1000","[""0086_N1000_K0300_CLIQUE"",""0086_N1000_K0300_NOCLIQUE""]","",""
"","","","","","canvas-keyboard-response","51","459029","0.0-48.2-0.2-0.2","","1770",""," ","[292,193,856,114,547,710,128,716,543,887,55,769,506,288,11,307,386,791,406,374,450,227,777,241,359,103,531,197,842,122,326,298,162,714,172,873,50,891,188,144,447,613,658,157,285,195,636,585,174,540,630,664,501,311,156,148,826,514,186,971,929,394,955,959,232,770,827,90,723,634,539,354,67,582,944,337,126,109,432,315,846,461,317,839,294,446,821,187,323,676,455,124,931,734,897,801,263,398,785,722,478,43,118,986,673,940,589,795,696,408,176,196,80,651,612,562,618,625,704,605,917,441,559,415,583,138,299,720,818,493,224,281,645,904,26,150,550,253,436,175,207,642,851,749,907,377,694,692,296,485,545,45,513,282,139,278,18,276,137,313,433,705,81,623,703,641,922,604,832,563,957,533,498,155,765,721,163,98,819,577,223,233,475,678,610,877,670,968,961,277,474,804,894,274,376,741,129,360,85,823,249,147,806,192,429,988,669,860,936,247,509,331,431,495,318,221,125,760,15,561,614,312,712,677,638,115,586,984,366,367,117,683,874,546,886,73,13,528,173,158,515,183,78,626,361,356,8,863,950,996,135,523,348,746,66,939,357,871,284,258,923,861,628,911,300,459,438,480,287,19,473,511,255,289,251,401,1,324,265,242,57,301,279,384,482,303,65,171,181,943,690,21,283,336,825,773,489,68,978,322,836,751,159,61,564,935,208,872,815,991,444,521,756,486,167,484,261,445,252,835,290,816,130,425,39,701,758,552,140,685,62,95,772,240,549,338,133,304,194,218,632,343,707,52,272,649,442,548,0,245,615,101,170,778,141,857,752,691,341,89,667,554,142,555,421,20,382,36,327,416,706,443,732,573,744,569,624,844,942,34,787,363,466,427,469,203,93,24,219,619,937,728,596,517,168,407,969,321,578,805,210,780,54,954,853,220,237,347,70,738,797,3,334,104,709,631,230,111,393,788,592,9,33,268,748,603,28,71,745,476,834,395,544,859,397,418,121,180,854,742,151,396,925,275,437,202,488,191,100,888,759,524,352,508,764,419,340,885,519,231,31,448,491,822,456,108,633,22,451,254,581,870,689,542,949,370,351,967,392,449,660,178,518,14,627,587,798,809,648,895,568,990,260,56,882,520,92,235,424,400,820,553,560,653,924,918,812,305,462,329,735,422,687,993,189,713,41,927,60,708,831,234,974,209,64,972,228,372,145,182,256,946,350,199,507,387,802,875,309,896,378,672,715,580,490,753,107,928,909,981,409,116,558,454,342,402,679,602,123,452,810,69,410,246,27,229,468,948,184,761,783,620,616,293,526,244,500,829,987,522,48,817,430,134,926,391,747,222,330,597,280,496,962,910,848,243,423,492,757,557,953,435,225,866,574,94,112,512,417,650,655,958,963,248,534,353,38,200,956,828,702,439,768,635,807,915,399,665,905,76,169,86,995,637,344,666,405,572,571,164,136,608,308,390,325,900,652,606,217,600,355,206,16,656,105,99,892,472,621,847,458,269,332,77,471,674,852,365,643,102,983,912,371,639,774,570,811,25,96,23,594,420,316,440,932,786,566,726,693,775,226,538,803,463,483,719,335,711,82,160,792,843,681,238,736,789,865,428,814,739,850,333,601,579,840,661,644,339,291,771,190,91,49,629,314,204,75,302,941,7,319,297,120,898,464,784,933,921,966,368,975,411,908,830,796,97,695,154,733,106,503,901,965,595,403,132,556,373,994,497,17,869,868,453,668,465,951,916,58,838,576,434,997,51,845,878,684,699,906,481,212,37,999,675,952,718,813,358,470,837,938,426,127,883,153,262,328,790,980,584,63,42,867,264,654,530,369,727,663,640,266,960,362,737,688,143,404,250,593,505,657,731,467,381,858,349,499,460,591,930,119,165,286,862,271,977,494,700,267,364,213,970,919,239,945,306,671,607,730,273,794,510,697,87,527,793,973,146,750,215,889,185,179,84,346,890,659,979,762,725,541,724,516,763,79,755,6,879,686,808,611,800,799,211,46,32,5,177,47,389,565,998,380,198,729,295,345,131,902,477,884,964,588,201,992,779,575,236,647,4,982,717,413,30,375,270,598,781,590,989,646,83,504,743,855,310,2,903,412,388,876,985,537,880,214,824,149,59,529,12,479,487,599,914,767,893,662,88,205,414,72,44,782,934,161,532,881,10,40,766,216,622,551,899,53,29,152,976,74,776,320,740,680,617,257,609,535,457,525,567,864,502,913,379,385,849,110,682,947,113,841,754,35,383,698,259,833,166,920,536]","arrowleft","0","0","300","1000","[""0086_N1000_K0300_CLIQUE"",""0086_N1000_K0300_NOCLIQUE""]","",""
"","","","","","audio-keyboard-response","52","460109","0.0-48.2-0.2-1.2","","null","audio_feedback/shuffles/shuffle01.mp3","null","","","0","0","300","1000","[""0086_N1000_K0300_CLIQUE"",""0086_N1000_K0300_NOCLIQUE""]","",""
"","","","","","canvas-keyboard-response","53","463837","0.0-48.3-0.3-0.3","","2553","","arrowleft","[888,438,85,180,780,380,945,439,113,686,486,745,873,953,789,17,928,778,625,854,295,636,834,191,416,578,750,534,195,471,846,526,178,979,167,601,30,90,323,237,944,456,670,305,602,421,765,257,196,744,235,957,265,8,448,722,499,283,627,33,663,96,691,314,579,461,607,671,881,210,342,796,806,310,527,561,699,198,949,740,903,629,395,84,426,761,76,556,766,800,952,69,943,595,791,225,599,82,829,669,457,530,777,436,170,684,588,135,612,168,754,114,205,204,659,772,56,839,199,292,606,956,311,989,433,361,10,187,125,160,53,715,502,996,976,803,9,260,68,148,783,19,315,942,991,350,118,154,723,828,175,682,856,234,581,413,52,58,680,620,146,190,977,755,238,688,332,650,958,164,546,751,374,215,624,947,356,770,690,973,103,638,877,248,442,738,270,119,301,594,553,681,622,504,757,363,835,987,99,968,608,901,653,258,551,132,592,885,707,500,730,509,473,51,239,596,14,583,560,543,242,272,13,613,319,192,162,18,233,895,64,73,378,997,590,329,336,503,733,554,536,697,540,403,858,833,405,12,7,868,975,894,645,466,275,381,934,5,0,950,563,736,351,247,425,122,661,713,693,172,369,747,518,547,703,930,649,860,297,969,825,571,202,220,706,388,549,331,767,161,677,635,227,955,29,402,631,572,924,47,539,42,570,978,762,39,74,611,654,120,419,376,253,228,815,287,823,470,81,705,2,396,370,495,916,384,491,897,88,701,764,443,889,477,982,349,324,720,447,44,211,222,194,746,136,879,714,640,698,961,641,362,318,377,657,920,990,177,634,870,206,459,615,389,189,763,496,255,386,406,758,831,230,394,423,278,22,444,753,108,249,565,469,759,111,817,304,365,647,597,808,359,335,673,411,963,429,266,600,269,872,89,569,648,725,666,717,931,514,855,25,849,244,567,890,346,176,985,626,41,651,4,493,387,793,832,24,983,322,302,587,157,948,893,568,368,296,619,261,891,130,752,802,6,229,965,358,970,37,485,150,711,78,862,254,464,795,263,57,399,212,516,20,209,26,878,914,656,46,338,665,112,40,173,271,218,32,145,353,999,667,787,792,724,400,727,737,716,959,327,143,494,217,75,86,604,900,321,524,867,940,197,962,241,221,441,925,709,566,728,65,124,886,732,824,840,883,357,533,290,826,704,345,450,538,841,155,427,307,277,128,372,805,910,769,156,748,454,341,672,383,165,617,398,224,853,481,483,912,293,216,482,827,417,809,921,781,72,48,83,11,100,580,412,541,515,505,577,28,501,393,545,865,799,586,245,923,440,243,467,101,232,951,158,141,280,642,700,375,905,652,35,379,816,557,550,92,476,964,131,689,775,79,913,582,273,1,743,264,21,639,61,463,344,882,306,525,995,55,896,710,27,340,902,116,117,898,418,129,776,475,683,779,548,555,219,207,861,633,892,431,465,407,354,632,941,223,110,91,360,591,899,574,874,93,226,972,449,628,909,181,794,182,488,960,988,676,462,259,822,104,127,837,422,70,984,106,144,123,528,812,729,352,169,325,726,927,814,708,637,742,151,71,994,544,731,852,434,94,660,313,584,562,337,408,702,542,468,773,316,906,674,786,308,614,497,813,330,734,859,214,573,38,80,34,453,935,77,887,559,49,692,675,286,409,498,790,262,908,848,142,668,267,126,152,532,915,326,186,31,492,284,911,184,347,487,240,696,658,939,279,490,66,605,174,511,519,830,54,138,907,646,644,782,589,437,460,508,919,256,420,576,685,334,252,282,531,343,529,768,974,474,317,804,850,414,712,274,926,936,105,937,687,851,480,623,871,510,552,312,371,904,97,149,535,390,452,133,397,719,866,98,137,102,478,517,339,23,385,367,300,373,50,695,998,67,213,208,662,140,163,678,115,183,507,756,819,721,87,289,818,875,432,774,200,917,585,159,643,201,298,664,45,739,609,838,451,513,992,320,523,843,179,630,749,718,847,522,836,980,520,537,185,797,918,392,929,424,946,479,188,785,134,121,610,428,694,986,455,784,876,366,445,348,884,971,811,993,36,621,16,616,276,807,735,415,655,844,299,798,59,333,281,845,285,484,251,139,967,472,193,203,603,966,43,458,788,435,404,355,294,62,741,401,564,236,382,981,558,618,410,922,109,107,430,250,489,933,268,954,15,575,166,303,147,679,95,231,60,864,771,506,63,938,880,598,521,3,857,309,842,593,801,821,869,288,820,153,328,446,246,760,863,512,391,171,932,291,810,364]","arrowleft","0","0","300","1000","[""0086_N1000_K0300_CLIQUE"",""0086_N1000_K0300_NOCLIQUE""]","","true"
"","","","","","audio-keyboard-response","54","464846","0.0-48.3-0.3-1.3","","null","audio_feedback/right/coin01.mp3","null","","","0","0","300","1000","[""0086_N1000_K0300_CLIQUE"",""0086_N1000_K0300_NOCLIQUE""]","",""
"","","","","","canvas-keyboard-response","55","483715","0.0-49.0-0.0-0.0","","17698",""," ","[699,560,715,827,434,408,623,974,954,34,266,351,417,229,708,548,748,612,345,445,784,334,909,752,677,473,230,535,819,247,946,63,948,73,223,791,865,707,602,522,114,632,536,237,938,108,101,566,348,735,23,532,711,758,670,925,182,488,154,481,400,806,65,878,636,267,825,441,140,262,171,914,504,690,985,99,328,358,892,545,456,763,696,622,889,298,669,203,968,861,117,425,43,460,579,671,524,40,81,285,377,407,106,517,689,732,822,661,903,55,308,448,452,792,927,307,268,587,916,952,36,972,406,8,888,431,537,166,931,849,153,939,634,443,676,212,356,51,738,113,608,105,928,396,678,174,393,46,531,679,261,958,115,167,58,454,365,719,871,100,181,768,831,24,850,389,882,360,232,937,660,257,559,492,224,476,317,565,839,487,639,471,404,13,629,756,607,163,698,18,988,295,485,367,32,703,152,338,349,920,568,41,289,54,521,432,293,508,523,964,439,362,15,897,420,26,486,21,254,89,147,727,341,494,263,564,234,552,905,394,606,331,90,37,692,637,601,782,982,561,427,800,857,61,330,575,907,710,908,691,312,276,165,449,260,482,614,761,627,886,146,132,890,875,344,369,233,399,336,573,19,922,881,934,391,315,950,4,413,17,740,563,311,578,981,68,744,718,397,185,45,757,884,227,226,25,779,491,755,813,190,259,662,138,383,141,672,465,657,769,803,547,515,430,796,953,650,161,339,104,372,824,604,500,816,971,69,613,656,858,658,22,219,975,734,483,302,290,284,179,555,550,258,416,392,222,192,142,390,609,999,785,554,603,625,14,513,319,990,978,279,137,346,900,771,433,762,173,877,304,347,326,217,272,701,158,733,743,242,204,56,282,894,643,528,183,60,518,414,364,620,863,541,823,435,437,318,12,510,160,164,885,86,666,196,143,590,759,382,887,687,682,402,848,220,292,411,72,663,969,783,213,986,680,87,729,826,62,912,172,370,557,911,966,805,836,405,618,283,472,75,286,478,745,145,495,594,111,53,245,790,901,128,574,751,239,499,250,641,324,200,995,462,70,780,960,463,569,798,320,461,107,979,297,611,387,739,980,470,175,35,722,821,231,668,418,655,241,410,496,767,935,124,714,760,354,506,357,447,380,296,371,585,395,778,169,3,820,288,520,649,893,7,42,155,466,599,801,359,253,422,919,244,235,84,480,122,189,773,342,419,633,786,777,799,859,274,591,340,243,787,96,965,730,539,148,529,221,684,329,891,829,428,746,673,600,917,71,725,675,469,112,542,95,374,301,936,961,898,549,131,862,645,807,386,577,57,694,860,973,789,814,617,309,583,770,970,5,683,180,157,781,644,459,610,815,98,343,139,616,989,337,685,932,458,845,883,497,832,197,401,721,333,876,811,635,151,527,66,509,930,335,187,38,713,91,941,753,852,120,873,240,864,772,838,238,706,313,28,1,384,48,191,325,576,507,951,712,467,879,621,802,810,310,571,996,551,929,717,651,118,74,444,225,543,327,923,997,178,76,353,479,874,306,597,731,195,79,210,741,415,188,896,350,29,795,835,83,843,516,176,300,376,582,123,967,424,385,754,570,294,562,808,249,716,944,598,546,144,33,705,869,511,855,774,214,477,78,130,797,553,976,97,453,847,544,749,828,955,201,126,186,208,962,265,457,605,44,624,125,388,159,956,840,373,503,501,255,867,724,168,505,127,49,895,271,314,207,588,709,277,592,992,993,765,942,957,30,945,904,16,121,949,156,619,630,119,270,412,426,866,368,728,218,423,812,994,899,804,0,943,468,305,834,450,275,977,788,323,177,851,626,596,631,841,93,281,381,589,398,983,794,133,436,442,299,149,963,287,775,556,766,80,493,512,534,202,27,736,378,474,514,686,366,269,170,924,409,915,540,136,652,737,959,332,688,489,273,321,567,726,667,870,653,902,987,693,246,526,9,199,872,638,205,723,906,355,102,103,92,438,764,584,209,490,291,6,647,856,211,198,910,248,809,586,94,498,379,817,264,830,750,519,316,10,77,129,664,700,109,648,704,702,421,502,39,580,868,134,278,674,533,837,252,228,85,933,464,615,793,695,581,216,193,322,538,846,280,50,681,47,446,375,64,833,918,2,654,926,880,484,853,215,59,352,162,251,646,150,116,52,947,998,451,82,747,184,921,628,363,440,742,88,659,256,429,776,818,236,206,67,194,530,475,31,303,135,940,842,110,20,572,11,525,642,697,720,984,455,844,640,361,991,595,593,403,913,854,665,558]","arrowleft","0","1","300","1000","[""0022_N1000_K0300_CLIQUE"",""0093_N1000_K0300_NOCLIQUE""]","",""
"","","","","","audio-keyboard-response","56","484795","0.0-49.0-0.0-1.0","","null","audio_feedback/shuffles/shuffle01.mp3","null","","","0","1","300","1000","[""0022_N1000_K0300_CLIQUE"",""0093_N1000_K0300_NOCLIQUE""]","",""
"","","","","","canvas-keyboard-response","57","492372","0.0-49.1-0.1-0.1","","6377","","arrowleft","[99,505,316,63,995,680,669,376,145,134,646,27,163,930,946,540,601,790,832,297,75,469,367,875,117,612,85,171,390,360,278,809,93,271,561,433,305,7,206,803,678,302,113,35,783,816,333,55,615,400,751,639,130,122,445,955,358,138,315,148,247,107,908,215,352,997,542,393,300,398,961,48,618,311,588,80,231,170,463,38,913,508,132,284,342,98,842,239,480,604,981,490,748,815,654,125,935,920,119,236,559,179,740,65,151,440,884,121,224,210,281,903,766,260,937,492,651,927,503,624,361,199,513,321,375,457,522,822,528,776,703,524,613,97,698,811,551,168,861,201,487,129,773,298,686,562,5,502,938,270,805,847,309,728,545,525,595,89,466,373,831,362,411,90,437,890,717,779,619,606,92,736,711,768,916,677,227,638,365,36,371,421,661,589,118,180,745,207,873,911,905,397,706,622,983,452,770,810,467,186,967,699,918,304,137,335,600,849,263,553,519,968,817,628,41,580,442,265,764,418,912,555,479,850,229,960,257,872,287,705,801,956,845,193,95,529,387,68,149,436,658,674,792,495,666,590,976,948,691,720,594,734,216,401,933,617,942,844,37,954,176,900,409,951,325,870,456,204,827,730,665,921,653,534,917,993,687,735,891,787,237,657,60,42,395,571,19,460,898,226,417,159,794,610,464,603,276,692,598,782,819,838,28,980,255,12,851,881,616,369,584,846,109,690,504,758,314,472,625,599,733,422,338,583,944,272,931,978,725,854,147,153,780,78,356,727,641,833,739,353,244,825,30,806,712,425,602,34,477,345,789,363,484,499,718,285,279,256,87,621,465,49,979,634,8,374,775,135,139,478,178,303,274,885,416,471,157,64,420,388,120,182,252,855,195,394,932,10,328,410,268,219,902,58,592,826,856,586,573,185,177,724,391,267,509,351,430,859,143,253,158,804,839,892,261,192,188,496,52,543,481,605,164,408,659,642,439,183,1,986,578,702,959,750,326,564,957,181,404,723,518,174,882,760,786,194,70,415,429,203,329,197,349,965,74,923,737,443,684,966,105,79,379,324,9,295,663,880,191,813,671,656,403,568,887,142,994,840,334,644,33,949,614,217,308,282,66,533,385,943,926,874,364,679,795,24,713,424,867,552,160,753,696,323,277,131,82,266,828,123,165,449,694,427,322,771,377,919,769,668,793,636,431,682,517,752,928,346,577,269,830,462,988,57,907,396,749,340,808,86,565,307,173,273,894,767,108,438,566,451,523,419,355,368,915,196,475,491,975,862,852,453,969,51,347,643,136,689,716,708,796,301,526,818,414,458,611,746,929,549,432,245,498,494,357,732,175,29,701,925,310,501,246,761,101,62,67,807,115,11,435,982,426,288,648,587,664,212,91,489,44,991,700,344,114,61,72,672,800,633,116,40,45,275,468,423,488,459,402,537,4,208,762,777,240,71,531,166,841,103,909,738,235,726,482,785,798,474,389,579,155,866,977,69,43,46,211,683,337,39,144,209,812,539,280,493,765,879,511,172,834,450,952,843,742,953,56,530,877,650,824,296,910,331,527,486,962,254,992,896,934,413,200,715,630,675,189,560,336,18,721,548,146,241,755,516,500,104,6,743,26,585,544,299,714,914,17,319,974,250,802,506,863,950,563,382,569,455,868,262,330,999,294,100,25,392,987,242,343,292,320,640,381,837,631,21,554,660,162,655,620,32,156,823,198,53,853,848,220,883,536,202,317,945,998,574,461,704,222,514,234,150,857,0,232,797,649,627,73,110,754,289,608,836,626,446,681,901,243,31,59,939,350,535,597,865,264,2,386,791,673,747,607,990,774,958,249,106,652,312,741,710,133,575,187,81,512,521,306,407,366,77,348,719,15,821,772,670,591,709,623,695,233,370,788,213,947,685,126,483,647,906,83,558,693,820,878,22,676,520,996,290,339,744,572,20,152,190,341,763,904,722,332,378,225,434,889,858,963,897,667,88,973,359,291,13,23,405,972,140,707,259,507,876,230,251,989,567,447,814,354,984,829,964,218,470,318,970,784,96,228,258,596,645,76,895,756,922,313,161,941,84,383,167,759,223,380,570,428,497,441,799,54,609,541,327,936,781,205,454,154,485,557,515,128,444,102,940,510,556,124,547,688,550,169,629,214,221,3,593,283,248,372,757,112,293,888,731,635,286,184,582,864,985,871,835,476,924,662,127,697,899,538,412,581,729,778,860,141,14,637,448,532,406,886,111,50,473,16,94,869,399,238,971,47,576,632,546,893,384]","arrowleft","0","1","300","1000","[""0022_N1000_K0300_CLIQUE"",""0093_N1000_K0300_NOCLIQUE""]","","true"
"","","","","","audio-keyboard-response","58","493385","0.0-49.1-0.1-1.1","","null","audio_feedback/right/coin01.mp3","null","","","0","1","300","1000","[""0022_N1000_K0300_CLIQUE"",""0093_N1000_K0300_NOCLIQUE""]","",""
"","","","","","canvas-keyboard-response","59","496828","0.0-50.0-0.0-0.0","","2271","","arrowleft","[868,450,60,557,51,42,626,464,95,748,642,498,50,339,411,491,890,120,570,194,368,150,807,18,142,206,605,198,378,270,467,691,630,764,124,588,361,44,20,183,757,66,662,634,300,47,158,666,749,929,883,857,180,655,89,522,351,962,902,279,379,102,657,906,715,877,910,256,589,308,257,396,263,697,941,518,730,761,678,200,461,331,72,731,643,584,432,645,788,15,680,17,297,736,901,84,195,990,314,873,286,616,971,316,298,894,92,74,759,934,112,706,110,891,104,28,777,488,78,341,817,34,624,348,289,46,692,683,581,668,175,337,435,160,793,785,826,96,972,733,734,977,562,495,943,707,365,537,99,125,737,304,105,77,53,712,13,167,280,531,903,436,288,729,823,164,541,492,377,854,418,392,276,363,633,428,239,568,466,185,489,389,615,751,681,269,82,703,468,355,745,394,912,944,550,931,393,833,57,366,454,109,721,338,566,808,829,88,958,357,898,924,463,527,949,456,146,143,178,780,282,151,980,585,250,996,548,265,968,723,502,583,114,215,909,62,580,587,693,340,76,544,283,205,809,900,520,595,810,682,247,908,670,641,409,684,136,860,572,774,231,154,476,800,458,820,189,65,255,274,806,956,779,746,94,921,362,554,536,245,148,177,805,259,677,375,192,533,219,197,101,168,904,152,651,321,187,434,134,291,83,229,995,369,54,513,839,157,917,3,571,75,858,131,284,313,438,656,445,21,781,487,864,311,928,989,27,640,293,718,424,939,728,578,646,690,271,869,794,627,778,352,221,717,914,935,546,852,278,188,855,416,815,388,330,722,840,386,783,469,381,969,850,133,846,470,775,744,166,559,122,558,609,620,45,116,875,619,827,376,211,847,67,32,719,350,494,238,367,720,169,190,582,249,937,129,679,501,448,532,689,86,710,87,302,459,472,552,946,358,675,251,905,387,460,791,145,893,575,593,828,618,556,328,951,705,741,395,916,577,162,551,248,617,836,232,14,29,919,68,240,186,843,952,866,560,8,220,856,743,913,849,252,324,203,510,258,812,798,97,932,320,241,512,64,545,210,479,824,754,648,141,644,509,400,306,629,621,525,11,100,838,307,752,6,153,326,835,574,686,599,33,402,497,135,507,530,415,408,36,266,309,927,758,91,517,262,9,825,708,738,735,504,317,121,499,976,493,426,622,845,295,885,55,876,346,837,770,659,538,254,760,590,803,768,216,895,244,453,38,26,471,553,592,713,892,638,399,925,12,792,994,490,56,404,139,797,243,201,336,987,31,789,623,967,853,24,443,380,687,606,740,117,750,831,287,318,918,485,414,224,126,353,59,63,382,39,886,742,887,111,970,569,957,310,725,113,880,253,973,138,332,747,5,159,508,430,802,529,315,821,776,403,410,391,132,979,947,985,564,647,602,600,650,727,7,922,732,285,514,563,480,611,69,540,81,612,19,80,963,207,607,948,755,419,236,586,628,165,140,155,923,543,277,439,406,385,625,503,417,549,813,170,429,799,674,521,440,179,334,347,260,58,22,35,303,848,603,601,771,983,233,127,726,349,327,661,702,222,704,462,359,264,447,547,694,528,333,567,299,412,861,978,374,356,437,149,942,442,653,4,267,938,652,85,699,193,225,867,98,981,975,974,882,950,481,496,851,226,786,954,360,246,515,184,422,144,478,811,790,290,242,542,635,397,993,519,960,897,953,796,281,982,61,804,945,325,427,597,446,115,959,296,2,49,594,966,196,163,405,182,342,208,889,230,879,907,765,664,888,524,991,384,25,801,676,579,596,500,0,671,237,865,273,673,610,329,871,688,486,685,999,294,214,130,818,920,660,173,561,576,608,700,842,343,832,455,354,161,323,766,782,516,881,787,79,128,636,654,992,23,43,425,174,147,449,714,863,482,10,420,123,137,841,986,667,878,767,711,228,234,663,444,473,213,1,698,452,896,275,716,37,441,322,511,373,872,965,390,696,383,834,936,555,739,795,52,199,911,477,926,172,505,819,90,371,830,370,649,202,364,209,862,41,988,724,40,506,753,844,235,335,398,301,565,223,204,756,772,261,933,526,319,413,431,961,227,70,613,344,604,292,534,345,272,672,899,784,870,268,997,535,119,769,118,998,156,763,762,874,665,176,773,523,457,433,103,709,71,407,312,639,614,474,93,372,814,423,822,658,401,637,483,107,669,964,884,475,16,591,218,539,465,48,30,421,930,695,73,191,859,955,632,816,181,915,108,305,212,171,984,573,631,484,598,940,701,451,106,217]","arrowleft","0","2","267","1000","[""0080_N1000_K0267_CLIQUE"",""0072_N1000_K0267_NOCLIQUE""]","","true"
"","","","","","audio-keyboard-response","60","497843","0.0-50.0-0.0-1.0","","null","audio_feedback/right/coin01.mp3","null","","","0","2","267","1000","[""0080_N1000_K0267_CLIQUE"",""0072_N1000_K0267_NOCLIQUE""]","",""
"","","","","","canvas-keyboard-response","61","500416","0.0-51.0-0.0-0.0","","1395","","arrowleft","[827,806,679,459,209,475,848,937,676,725,186,833,126,207,296,543,87,20,35,606,660,462,532,566,665,214,584,479,911,181,586,690,551,863,293,633,935,184,123,628,414,723,948,418,393,781,446,837,250,763,266,278,190,756,549,531,900,342,879,658,669,585,111,717,711,875,40,736,672,361,154,376,120,612,94,30,82,820,474,757,572,212,168,511,430,902,163,491,117,164,963,238,464,627,958,191,25,748,670,977,200,799,535,331,451,188,51,978,836,125,724,730,861,550,442,652,203,885,641,892,453,406,381,236,519,221,545,714,9,980,205,867,913,443,774,2,201,32,738,61,452,795,596,369,42,11,137,432,400,533,460,388,243,716,556,248,721,828,431,199,401,542,746,505,847,306,650,65,455,81,945,758,420,79,859,972,204,492,792,8,194,844,966,849,594,78,429,302,986,683,309,919,866,308,886,99,368,574,43,749,12,261,375,477,202,478,326,601,274,555,441,541,336,53,570,165,598,377,50,220,575,942,104,593,884,744,778,283,83,182,366,961,960,245,783,910,63,830,13,975,411,610,524,1,737,916,286,544,445,22,103,608,153,324,439,649,815,558,599,539,952,742,334,605,526,944,252,71,91,928,780,999,268,794,143,67,712,603,636,904,218,457,340,405,38,233,776,788,692,797,49,358,924,675,389,734,176,534,995,84,648,852,476,790,843,600,378,346,562,623,568,262,229,614,316,80,33,47,694,768,415,46,666,554,241,272,227,454,434,745,28,86,888,751,747,471,228,583,350,273,254,858,304,222,722,235,915,131,865,597,581,90,624,290,589,359,520,755,291,857,700,635,921,409,392,578,295,166,595,664,287,66,113,327,114,673,718,881,687,825,765,588,985,897,993,782,634,357,691,354,726,325,957,582,816,659,14,674,681,762,424,178,625,60,456,44,969,796,210,709,152,267,469,739,893,56,183,791,785,48,800,657,135,804,607,276,818,128,34,171,45,564,134,348,656,288,839,55,305,208,696,36,949,140,395,811,668,873,313,918,810,185,773,215,537,994,494,372,769,52,109,974,706,518,813,912,569,824,422,394,300,523,150,507,662,159,37,950,883,621,899,77,654,684,713,591,345,240,108,682,363,141,383,808,311,920,959,775,297,407,450,951,337,88,467,981,173,504,259,19,715,275,740,440,592,437,655,138,647,481,870,438,167,954,351,576,996,997,805,587,611,465,473,314,525,869,169,119,269,506,728,862,580,496,487,846,258,970,192,226,246,284,70,318,984,435,845,940,232,72,973,197,529,64,761,157,752,251,379,521,24,54,565,741,225,172,502,353,982,458,882,356,216,161,697,482,707,285,347,793,988,365,427,499,540,563,341,653,436,404,512,174,971,753,567,877,398,374,661,639,151,62,638,688,408,604,962,571,841,802,789,955,677,770,552,57,270,399,105,914,211,360,807,100,987,842,390,760,461,147,335,265,838,619,645,615,444,508,907,195,917,701,396,370,362,307,196,382,856,514,279,720,699,116,198,352,231,719,909,735,933,498,903,330,750,230,812,936,127,312,263,629,425,705,579,4,759,710,132,343,76,332,387,433,92,73,95,160,620,703,133,344,206,561,155,322,493,876,490,447,729,992,516,130,814,642,412,922,644,926,217,803,931,998,702,513,798,371,891,239,489,320,385,421,500,256,193,732,384,626,468,771,667,855,413,244,289,631,925,101,106,956,880,831,97,129,234,772,321,704,15,102,890,536,282,7,822,930,23,938,29,249,3,927,292,5,21,107,39,338,146,895,416,901,364,177,821,854,573,426,41,68,122,617,546,663,680,860,93,766,630,121,417,991,423,463,328,112,823,89,145,323,557,85,179,819,874,264,110,367,968,510,809,156,934,488,560,553,786,485,754,255,333,484,872,403,559,832,310,784,149,939,826,651,26,74,397,75,708,237,329,964,349,303,187,929,622,851,497,180,983,428,829,947,547,142,698,548,449,373,299,965,616,989,733,767,58,17,835,391,528,779,731,0,834,689,943,162,887,946,538,495,517,339,410,466,609,59,509,315,522,6,590,853,889,643,743,787,515,990,98,355,124,170,678,840,472,527,213,817,69,894,115,801,189,470,878,618,501,219,18,31,402,175,503,486,480,16,380,923,850,242,253,144,868,280,613,577,530,27,158,483,671,602,224,294,298,686,257,695,967,301,905,953,386,896,685,139,864,223,646,693,979,281,976,906,118,10,277,727,136,777,317,96,932,898,637,247,632,271,260,764,148,908,419,640,319,941,448,871]","arrowleft","0","3","267","1000","[""0055_N1000_K0267_CLIQUE"",""0035_N1000_K0267_NOCLIQUE""]","","true"
"","","","","","audio-keyboard-response","62","501419","0.0-51.0-0.0-1.0","","null","audio_feedback/right/coin01.mp3","null","","","0","3","267","1000","[""0055_N1000_K0267_CLIQUE"",""0035_N1000_K0267_NOCLIQUE""]","",""
"","","","","","canvas-keyboard-response","63","503469","0.0-52.0-0.0-0.0","","822","","arrowright","[48,392,630,393,66,194,378,204,277,540,76,841,106,366,99,696,138,918,893,778,174,837,47,424,344,101,486,607,736,586,188,459,656,647,162,229,335,286,43,267,326,372,314,587,67,827,838,173,438,839,727,493,856,491,793,909,52,135,957,928,257,89,921,662,452,731,8,924,447,537,700,346,573,232,765,390,333,36,351,240,235,81,119,726,377,775,750,337,825,604,967,599,934,51,799,331,905,469,926,316,482,980,159,399,547,136,325,264,593,425,256,54,490,220,488,903,132,684,640,190,298,888,506,611,993,609,848,708,861,118,210,86,546,250,978,862,717,234,966,56,636,299,941,948,451,494,126,137,810,10,564,872,802,441,592,288,834,725,771,961,334,811,398,870,531,391,422,723,627,693,936,34,887,419,526,821,227,600,417,70,938,153,642,278,899,566,443,784,581,670,766,621,283,0,476,804,192,881,977,95,404,831,318,239,300,624,868,964,588,659,737,295,606,796,233,471,134,910,597,618,518,445,776,892,643,487,498,764,437,485,479,24,575,359,165,669,741,371,525,475,481,180,673,565,850,963,714,107,768,814,431,806,524,914,217,781,307,9,803,817,703,92,358,970,49,701,867,397,44,133,712,732,798,746,665,345,777,713,420,532,1,699,933,534,146,489,946,648,527,939,203,150,864,354,29,50,590,433,327,183,508,875,436,382,847,871,571,522,823,661,759,429,886,896,596,808,666,818,535,315,322,328,595,953,98,270,697,103,109,88,496,410,916,245,986,6,944,5,885,90,199,984,461,504,492,769,291,271,919,663,694,411,574,91,598,466,226,557,940,406,258,385,577,922,408,923,418,263,272,428,782,16,472,216,509,569,53,193,559,78,97,685,156,758,995,689,959,202,536,617,755,709,463,388,37,734,363,248,384,512,82,102,787,653,155,644,130,517,386,412,464,160,373,462,30,201,619,610,865,890,306,951,634,660,32,651,184,674,981,483,292,614,572,427,835,61,580,589,720,702,221,320,442,801,309,285,681,715,122,809,242,293,341,499,880,625,42,113,695,505,343,629,982,60,898,792,971,819,114,69,236,231,117,361,840,876,177,539,311,958,612,166,879,883,127,57,112,403,639,556,426,243,474,845,949,795,478,829,728,654,988,287,889,93,968,149,370,448,296,974,214,927,266,87,529,238,578,115,874,282,402,528,705,265,783,716,749,152,979,185,355,342,925,434,224,745,544,704,897,601,930,68,108,686,987,140,105,20,128,383,338,844,4,301,26,710,58,73,972,247,740,553,915,983,920,743,195,131,789,514,484,7,453,367,846,541,151,855,744,477,111,319,15,866,71,552,123,25,218,31,14,96,290,550,555,376,297,510,449,761,94,752,687,163,520,833,975,962,779,863,576,637,854,175,698,321,628,997,858,33,655,161,405,55,255,110,460,450,446,594,786,626,773,281,935,908,251,470,873,387,691,158,942,421,859,584,672,657,501,365,952,591,742,543,772,664,332,80,172,603,222,409,500,667,212,739,197,400,79,241,3,179,852,719,215,650,357,998,45,85,904,502,900,252,206,186,929,911,62,836,538,39,389,530,375,46,990,17,84,884,602,999,348,822,912,294,754,72,259,791,560,191,467,289,679,308,523,649,100,680,770,568,374,394,692,800,280,620,989,28,414,631,826,757,269,788,751,824,124,548,74,125,244,945,142,275,635,223,249,144,116,729,439,423,141,605,646,869,473,260,623,721,678,785,329,882,65,943,753,213,992,562,353,350,807,748,208,13,362,902,219,302,688,167,368,960,454,774,507,515,516,570,317,638,762,347,432,121,430,38,324,615,349,832,797,181,683,381,503,857,35,641,40,816,932,310,901,756,330,658,733,339,690,730,843,735,435,444,41,583,120,379,200,891,561,585,416,820,196,805,671,254,261,955,268,456,2,458,303,413,676,284,851,668,169,170,139,747,877,360,369,533,154,364,622,519,711,794,813,950,395,985,551,189,780,558,582,143,996,225,27,579,465,209,907,913,513,969,652,878,21,682,356,849,313,860,906,677,273,994,104,563,83,495,706,545,828,812,760,407,613,895,157,632,973,853,722,497,129,279,675,917,707,738,521,767,312,549,147,415,542,608,19,23,724,815,616,954,211,198,145,274,253,164,468,176,511,633,276,75,991,956,457,947,12,554,182,567,931,480,178,168,304,64,148,455,401,937,976,763,305,645,440,396,380,246,187,22,965,59,77,262,336,340,352,228,171,842,207,11,323,205,894,718,830,237,63,790,230,18]","arrowright","0","4","233","1000","[""0009_N1000_K0233_NOCLIQUE"",""0079_N1000_K0233_CLIQUE""]","","true"
"","","","","","audio-keyboard-response","64","504484","0.0-52.0-0.0-1.0","","null","audio_feedback/right/coin01.mp3","null","","","0","4","233","1000","[""0009_N1000_K0233_NOCLIQUE"",""0079_N1000_K0233_CLIQUE""]","",""
"","","","","","canvas-keyboard-response","65","506475","0.0-53.0-0.0-0.0","","797","","arrowright","[800,294,212,244,550,26,870,259,956,449,399,267,310,277,312,383,429,2,382,873,419,345,472,8,866,975,791,542,922,612,293,567,987,928,61,530,473,306,272,0,713,386,849,247,694,123,761,642,932,150,887,854,598,667,984,717,377,230,494,951,735,647,58,746,822,724,891,651,528,423,393,28,229,698,94,718,502,591,398,875,233,536,825,281,381,467,194,311,163,275,468,239,856,157,319,826,346,134,635,137,213,980,204,300,828,455,325,508,680,503,965,343,70,445,90,223,762,289,490,898,302,98,754,225,1,782,131,551,740,844,301,31,290,495,691,994,829,448,664,91,985,154,260,308,990,121,438,852,347,50,4,653,505,716,704,222,171,87,73,320,102,564,406,441,607,338,833,92,596,916,285,457,619,615,892,636,688,644,943,127,362,606,76,135,257,108,142,232,357,13,48,25,910,417,72,376,527,981,124,180,706,27,246,991,790,405,616,792,622,939,136,95,838,107,780,389,982,726,167,657,820,85,731,511,588,919,186,287,263,296,184,700,7,278,561,321,583,318,682,581,744,670,158,522,62,334,652,126,250,271,63,96,779,959,785,627,874,555,996,177,245,128,808,674,69,601,313,890,881,214,221,816,116,827,690,662,524,646,997,867,521,173,237,520,269,52,333,3,385,43,671,655,344,226,456,730,16,387,75,185,162,200,481,940,722,461,437,623,895,523,626,809,648,53,743,593,316,705,68,755,42,506,164,911,371,541,279,35,995,784,400,540,178,149,728,475,378,912,845,748,332,352,893,787,248,650,747,786,857,426,668,602,78,794,988,81,307,32,509,146,130,74,719,961,401,182,114,582,30,139,341,737,256,574,282,249,952,931,414,439,348,548,970,254,397,179,938,600,504,834,976,100,322,776,906,207,416,599,264,661,927,384,450,769,566,133,144,734,697,330,413,702,295,605,783,589,572,342,699,839,80,880,280,732,189,396,364,677,51,262,681,656,440,687,56,354,492,238,576,806,323,89,899,224,66,82,840,500,424,963,372,560,499,552,498,914,525,804,360,807,491,675,942,901,166,373,21,23,488,143,573,989,814,420,592,729,331,156,77,141,604,824,17,547,112,84,793,823,972,463,113,531,19,215,539,960,431,624,603,480,350,908,117,339,57,805,513,689,563,832,889,453,251,772,962,415,923,710,958,9,329,231,544,328,88,777,510,197,486,303,821,447,111,617,897,609,418,444,40,813,884,610,863,878,219,759,831,640,902,217,161,261,394,67,676,882,514,284,55,298,160,973,434,953,20,859,933,918,720,129,930,283,234,620,595,742,196,436,819,5,497,736,516,478,292,758,864,684,945,590,752,711,836,559,507,900,433,587,188,93,580,432,577,240,170,876,266,337,903,299,45,476,789,379,104,986,37,335,29,529,788,155,707,883,151,60,304,775,811,402,983,83,11,861,535,851,421,370,632,517,106,631,565,317,427,443,205,701,324,138,537,430,955,733,842,168,584,459,208,15,715,355,315,778,799,366,493,633,765,830,442,538,22,695,641,993,929,703,860,412,409,569,693,949,209,879,692,358,771,917,750,797,470,745,683,252,608,896,105,519,220,512,835,885,618,571,408,992,190,575,741,968,392,458,669,810,228,556,554,192,562,286,946,721,708,466,195,558,326,935,483,966,367,309,696,894,452,869,768,568,767,578,629,597,391,145,585,738,964,924,291,515,714,172,356,760,422,79,868,978,410,460,579,227,198,41,351,725,967,818,18,871,119,243,462,639,242,270,110,660,428,659,570,756,673,297,109,153,843,941,14,781,666,49,837,47,796,365,998,120,99,327,685,479,374,920,465,187,757,974,288,533,274,115,103,253,359,276,658,614,586,936,487,97,471,38,921,904,773,877,679,526,407,132,739,947,979,611,886,841,44,634,199,915,950,101,934,888,152,24,33,907,176,557,235,474,543,206,977,749,937,545,812,174,621,865,944,645,71,969,175,853,534,496,630,594,122,165,672,46,872,336,815,625,118,125,654,801,532,34,546,201,64,368,65,202,340,361,909,926,147,482,273,369,388,181,258,236,948,803,193,265,446,753,148,665,763,411,802,451,390,305,770,549,241,709,395,850,86,216,649,999,485,477,140,913,764,686,59,464,954,159,613,435,169,848,349,375,643,637,663,971,484,454,36,727,54,255,211,12,6,855,751,363,489,925,905,723,766,678,638,795,846,553,712,403,862,817,858,210,847,183,628,404,380,268,353,425,469,518,314,957,501,191,10,39,798,218,203,774]","arrowright","0","5","233","1000","[""0092_N1000_K0233_NOCLIQUE"",""0086_N1000_K0233_CLIQUE""]","","true"
"","","","","","audio-keyboard-response","66","507479","0.0-53.0-0.0-1.0","","null","audio_feedback/right/coin01.mp3","null","","","0","5","233","1000","[""0092_N1000_K0233_NOCLIQUE"",""0086_N1000_K0233_CLIQUE""]","",""
"","","","","","canvas-keyboard-response","67","510204","0.0-54.0-0.0-0.0","","1540","","arrowright","[769,602,248,940,795,535,192,453,522,10,175,391,187,277,56,60,82,741,220,964,850,677,20,826,914,855,273,808,140,394,30,885,835,121,919,262,617,495,196,638,320,672,540,149,40,71,559,16,568,524,641,253,517,925,557,204,98,761,331,562,154,22,374,513,227,975,208,428,487,301,660,267,784,150,812,597,454,880,97,730,101,816,541,382,864,952,734,752,470,385,706,896,821,55,485,751,64,954,705,326,630,45,377,36,236,91,25,416,981,512,145,463,731,558,961,241,287,315,543,657,985,932,309,606,395,922,464,554,379,429,49,369,165,729,307,840,829,70,88,912,783,519,507,863,93,206,563,48,388,417,874,5,12,584,350,844,740,8,916,407,684,909,238,235,527,620,673,476,501,104,585,991,550,117,19,213,861,578,888,11,80,230,321,962,764,797,468,53,986,716,443,323,908,29,138,72,152,632,635,759,676,446,700,67,217,408,866,465,341,614,774,406,479,24,872,640,763,250,998,161,279,928,572,625,472,409,523,387,85,892,619,994,265,724,996,118,456,845,75,290,645,183,800,576,870,890,539,825,286,50,190,858,631,475,35,775,599,803,489,807,137,386,997,623,977,243,842,42,503,425,681,193,656,229,34,43,458,105,987,569,653,624,918,974,846,27,166,352,330,993,234,785,593,131,274,560,345,739,47,728,211,937,809,959,26,839,820,707,336,179,886,426,142,356,972,95,566,980,723,414,65,555,532,796,603,186,735,924,412,9,353,938,899,219,228,432,823,157,66,437,634,21,615,942,789,824,847,692,189,57,575,259,125,717,521,381,195,502,73,490,570,13,750,601,990,316,478,38,327,913,542,508,373,969,419,590,263,531,403,857,781,94,305,240,745,713,474,15,504,548,272,721,431,668,573,410,498,162,644,958,642,608,126,547,525,830,128,430,205,515,647,836,738,732,322,819,347,794,725,244,256,953,293,201,96,109,882,212,756,733,1,598,988,564,727,703,284,704,445,357,314,901,452,338,694,89,687,343,457,440,766,451,439,923,147,335,516,822,370,702,772,291,536,754,28,362,762,411,90,500,889,372,546,902,318,182,477,984,627,18,595,780,583,951,361,815,448,62,258,827,119,671,552,838,628,114,143,329,223,124,340,806,255,191,399,948,618,355,418,200,798,436,636,180,360,151,801,442,679,529,678,392,574,973,310,346,893,509,339,397,582,579,59,511,110,690,120,944,689,600,129,261,878,654,897,14,450,693,232,710,365,300,920,955,225,697,264,514,875,334,342,818,148,499,483,867,466,295,231,811,270,413,983,662,83,178,164,351,245,792,528,869,736,209,368,281,358,828,389,904,883,276,856,427,848,239,188,113,643,851,302,905,181,469,37,791,930,992,111,699,292,760,865,447,737,659,719,613,494,810,910,74,626,670,873,367,160,505,876,895,935,207,467,675,199,312,471,283,168,108,285,0,176,683,934,976,496,252,591,311,746,344,52,169,852,903,773,714,667,567,23,481,877,854,203,155,612,533,102,957,202,786,115,549,247,586,116,17,78,965,61,333,577,288,444,776,132,378,215,269,438,337,257,757,770,637,364,804,520,141,545,163,415,371,782,139,170,348,629,691,402,639,237,492,685,77,383,970,989,2,945,669,771,610,665,433,966,565,480,755,594,588,947,449,328,461,793,860,214,968,146,765,616,251,242,393,76,266,538,222,313,879,936,177,589,194,39,375,354,530,167,743,960,401,405,153,135,278,156,580,921,607,933,233,891,802,304,254,881,493,753,663,441,674,384,664,556,698,929,491,915,249,398,526,462,778,622,544,767,853,396,226,708,260,658,171,553,749,497,832,421,666,422,134,907,174,587,246,482,210,649,931,971,473,884,294,424,956,130,561,68,604,709,949,198,103,58,289,768,299,185,571,122,995,805,695,221,868,158,747,871,506,380,581,390,455,31,611,123,779,86,943,592,308,742,33,941,280,325,99,894,927,518,84,982,758,720,486,652,715,54,319,275,159,435,655,349,4,799,831,862,849,366,814,173,833,648,136,900,298,144,898,510,297,459,817,967,537,999,682,859,296,306,63,92,44,843,917,46,112,688,404,224,41,711,423,939,788,621,790,701,712,661,926,363,837,596,963,32,722,332,551,106,787,777,834,633,51,534,3,650,484,6,748,317,460,744,282,646,268,841,303,718,946,696,420,605,7,488,359,127,906,324,197,107,887,100,216,911,69,950,218,978,376,680,133,979,686,434,184,79,813,81,400,271,726,172,87,651,609]","arrowright","0","6","217","1000","[""0019_N1000_K0217_NOCLIQUE"",""0019_N1000_K0217_CLIQUE""]","","true"
"","","","","","audio-keyboard-response","68","511217","0.0-54.0-0.0-1.0","","null","audio_feedback/right/coin01.mp3","null","","","0","6","217","1000","[""0019_N1000_K0217_NOCLIQUE"",""0019_N1000_K0217_CLIQUE""]","",""
"","","","","","canvas-keyboard-response","69","513232","0.0-55.0-0.0-0.0","","797","","arrowright","[607,485,492,382,789,654,655,70,84,940,805,894,364,273,934,619,858,91,812,360,263,314,398,902,606,399,284,674,794,782,787,819,150,168,702,740,167,519,78,123,597,954,769,408,395,876,52,833,178,659,599,962,92,346,527,693,285,875,442,327,668,38,245,957,499,570,803,13,426,251,125,90,623,441,233,473,838,50,208,582,179,964,60,480,154,292,931,532,61,430,995,62,922,963,586,854,610,252,834,501,844,744,474,232,302,287,948,735,219,260,760,132,229,411,525,524,301,286,461,381,773,675,495,591,977,136,117,319,726,708,625,146,397,792,750,300,320,818,310,418,264,997,1,747,846,542,165,350,551,20,863,101,797,937,299,129,253,886,405,275,201,470,404,528,158,900,676,380,363,5,220,800,283,809,140,174,469,368,159,454,116,449,697,415,575,377,825,569,22,907,308,333,465,864,883,238,632,444,402,329,291,545,611,567,720,110,617,584,497,704,985,799,897,520,446,802,888,725,54,896,477,628,109,10,529,385,459,107,6,933,901,427,289,498,507,733,440,189,757,115,31,549,791,392,303,2,428,334,602,276,516,439,237,583,629,537,389,425,458,889,83,447,898,714,598,506,541,814,180,596,46,784,577,753,778,810,445,713,106,172,187,453,274,271,680,613,627,770,705,837,807,721,491,155,94,403,921,386,74,652,306,887,437,663,783,709,660,99,972,603,585,141,51,396,576,278,673,239,450,929,892,322,357,198,296,879,33,49,862,207,626,374,852,218,8,539,691,336,703,417,645,443,68,104,860,9,138,775,423,877,124,388,183,658,279,641,30,742,176,297,66,915,618,235,624,561,840,976,343,944,946,719,593,932,188,420,243,185,609,605,820,850,164,358,989,406,148,871,595,210,568,222,452,822,536,211,571,746,790,811,874,777,503,671,347,152,578,990,344,893,242,870,592,579,41,917,337,754,122,712,161,202,767,662,163,973,29,156,249,928,752,672,348,904,15,448,843,472,367,100,484,930,813,464,895,500,533,376,601,313,550,17,716,505,690,557,706,958,82,212,73,277,924,975,687,657,88,479,487,996,732,434,796,707,113,476,737,412,608,317,482,518,460,261,131,216,631,694,325,981,903,36,966,200,400,438,87,478,808,951,815,97,911,563,689,630,942,959,457,952,234,135,56,548,943,565,372,375,857,824,936,57,526,847,98,462,991,665,265,899,502,774,927,345,468,644,785,339,771,293,711,640,866,905,225,431,59,681,945,298,307,270,795,76,918,268,646,766,486,953,340,925,89,868,823,223,616,455,475,885,515,354,194,955,855,102,422,829,481,173,861,119,256,594,830,42,758,191,530,231,534,394,224,162,328,622,14,281,365,756,842,28,151,580,531,93,661,968,64,7,280,906,724,488,572,170,510,421,949,433,827,175,993,203,736,910,890,588,683,832,686,21,332,728,729,692,259,573,715,634,979,521,221,615,209,685,956,554,305,835,543,304,992,63,786,196,471,248,34,745,3,401,695,145,490,978,664,682,717,371,241,558,204,160,544,998,912,312,651,831,772,941,546,696,435,290,559,494,848,55,587,351,552,698,865,362,669,839,294,353,999,40,600,826,701,213,257,926,32,75,466,227,143,26,37,192,635,387,0,72,379,25,884,710,359,965,688,650,39,562,96,153,947,69,338,128,869,867,127,667,878,517,982,970,318,730,149,226,250,722,806,120,988,872,416,639,967,246,323,538,451,741,45,555,621,11,670,700,19,759,390,636,80,793,523,637,504,649,393,258,341,880,856,370,361,429,950,779,44,620,699,648,656,240,836,244,366,282,424,511,748,684,255,409,939,316,24,817,71,535,111,112,130,496,349,186,849,410,199,974,190,873,35,780,816,718,331,181,881,247,765,653,633,781,85,761,908,67,960,845,763,853,171,891,547,214,27,768,994,678,272,914,679,647,4,493,53,47,512,776,612,48,86,16,980,23,971,456,205,228,269,540,514,230,935,913,369,463,236,139,919,157,309,731,677,108,923,574,589,916,882,352,79,335,95,987,321,144,262,419,734,739,288,266,432,436,206,743,938,581,105,373,137,81,197,749,58,764,614,65,326,762,727,114,177,182,147,378,77,522,920,509,169,217,356,134,564,859,801,118,828,513,851,311,342,643,751,738,961,383,18,566,43,984,126,184,103,267,295,315,355,642,553,560,590,723,467,121,254,483,983,969,604,508,133,166,788,142,638,798,414,384,391,12,986,330,215,413,556,841,804,909,666,195,821,489,407,755,193,324]","arrowright","0","7","217","1000","[""0005_N1000_K0217_NOCLIQUE"",""0037_N1000_K0217_CLIQUE""]","","true"
"","","","","","audio-keyboard-response","70","514236","0.0-55.0-0.0-1.0","","null","audio_feedback/right/coin01.mp3","null","","","0","7","217","1000","[""0005_N1000_K0217_NOCLIQUE"",""0037_N1000_K0217_CLIQUE""]","",""
"","","","","","canvas-keyboard-response","71","516147","0.0-56.0-0.0-0.0","","730","","arrowleft","[723,522,40,323,88,446,157,202,314,715,132,69,796,406,768,295,698,642,281,220,481,468,357,819,993,402,605,252,306,367,469,487,690,174,581,564,543,793,893,11,347,200,391,214,168,508,727,0,634,800,592,719,977,706,927,135,389,294,953,900,203,760,275,535,606,479,555,883,536,98,976,484,585,549,932,348,574,413,853,860,82,480,811,259,838,657,181,344,89,444,563,869,134,518,541,989,936,954,710,551,117,640,506,886,226,513,786,644,241,115,982,608,565,807,693,828,732,596,758,540,730,491,425,153,50,782,669,911,654,330,175,15,407,847,177,980,512,46,67,850,820,64,995,762,380,26,714,419,211,618,635,70,359,940,722,195,821,475,809,111,659,676,983,109,152,207,247,415,485,245,919,267,459,161,646,844,526,458,97,361,794,928,670,7,284,891,561,808,158,960,426,414,44,141,45,360,460,874,401,470,355,841,107,441,629,603,68,264,423,795,29,985,888,557,437,573,255,994,665,336,196,21,881,278,879,619,770,322,755,427,304,142,373,628,19,855,905,376,237,5,576,894,327,749,31,392,792,36,934,494,232,377,271,667,979,453,990,810,496,58,110,72,113,516,679,390,790,235,906,193,668,623,959,239,312,962,952,16,586,341,41,51,119,728,289,965,931,59,658,837,471,801,188,71,439,76,219,803,915,296,917,418,297,943,957,233,504,505,815,502,601,680,590,602,797,121,920,724,251,846,963,167,500,2,27,169,509,179,268,643,318,747,497,862,339,734,559,417,750,13,112,160,286,626,785,550,779,340,228,942,907,567,86,1,987,145,456,464,492,842,287,986,876,221,599,720,189,173,473,638,752,467,765,301,249,205,655,210,258,604,130,804,320,700,984,150,365,641,933,422,48,442,123,922,743,766,246,652,85,240,956,354,863,8,310,334,379,280,610,126,90,950,176,992,424,615,146,234,528,272,780,816,429,400,455,856,302,37,777,180,17,921,539,898,166,333,918,447,431,899,164,696,14,159,28,776,924,867,969,875,630,57,335,30,949,353,184,725,849,75,890,489,653,349,403,204,802,108,93,337,25,162,639,609,534,81,66,511,624,825,948,430,462,356,772,902,358,326,381,685,412,913,510,827,649,24,399,22,753,767,831,584,751,553,104,61,288,812,613,319,148,375,756,370,124,681,833,199,62,996,868,552,532,498,926,371,6,877,974,545,507,683,566,872,238,317,981,410,647,262,171,889,435,216,519,106,398,461,35,217,254,499,717,648,971,242,382,190,865,495,531,678,935,712,970,611,131,96,533,882,799,897,185,325,521,102,769,912,416,120,660,428,704,859,761,79,394,675,988,904,39,997,547,892,538,38,270,291,329,687,616,409,133,836,178,127,887,946,74,721,524,404,966,688,450,781,787,116,293,194,968,864,342,737,140,154,830,620,666,290,880,901,999,128,885,65,729,514,923,870,878,716,945,47,568,597,283,822,835,478,697,973,10,279,451,396,137,482,829,372,873,92,708,612,826,432,449,739,83,577,771,735,733,580,386,170,861,346,909,627,764,369,9,393,77,466,55,593,823,661,91,858,138,852,925,421,118,23,488,187,256,244,477,703,223,525,544,798,465,34,42,457,689,662,916,257,622,583,961,60,944,937,582,625,546,136,848,328,405,183,645,664,784,857,292,718,305,54,588,805,352,277,527,236,709,517,476,448,378,316,598,967,12,18,832,95,384,951,975,843,754,695,155,276,52,364,250,343,955,741,307,411,368,186,43,896,788,594,824,87,744,172,562,578,101,607,530,621,224,192,94,139,253,156,191,972,575,261,103,515,324,595,529,908,677,554,778,991,672,313,144,321,472,387,486,895,129,454,759,315,248,206,308,100,738,229,332,542,775,998,570,978,273,711,705,958,537,591,520,673,197,463,78,260,783,699,225,338,941,663,523,745,789,445,614,914,331,218,474,713,587,56,938,274,845,215,397,840,818,212,282,866,443,263,385,438,650,151,265,114,299,362,266,548,910,420,53,198,122,298,814,395,569,80,617,49,736,560,230,99,636,345,834,20,125,939,579,300,632,222,63,746,742,791,501,374,651,684,929,839,388,351,813,309,163,964,440,854,701,73,434,84,589,147,383,143,408,774,571,558,483,311,773,363,851,682,227,757,209,366,691,4,303,692,947,702,731,656,350,490,201,572,707,269,32,436,33,671,3,740,208,493,600,903,817,694,213,433,231,633,631,763,748,165,674,930,686,285,884,556,149,182,105,871,503,806,243,452,637,726]","arrowleft","0","8","200","1000","[""0065_N1000_K0200_CLIQUE"",""0024_N1000_K0200_NOCLIQUE""]","","true"
"","","","","","audio-keyboard-response","72","517161","0.0-56.0-0.0-1.0","","null","audio_feedback/right/coin01.mp3","null","","","0","8","200","1000","[""0065_N1000_K0200_CLIQUE"",""0024_N1000_K0200_NOCLIQUE""]","",""
"","","","","","canvas-keyboard-response","73","519041","0.0-57.0-0.0-0.0","","693","","arrowright","[749,119,342,766,543,499,673,875,513,434,173,471,153,155,125,757,605,103,987,950,771,162,998,649,300,121,34,620,472,602,809,1,562,505,401,841,641,968,754,780,935,607,415,322,937,870,280,157,752,592,846,426,724,879,619,828,587,932,863,487,764,609,452,567,813,638,297,9,956,470,521,294,111,674,808,959,95,112,680,805,225,176,936,565,330,428,24,457,657,970,647,29,652,838,340,210,222,217,237,311,437,364,524,363,858,955,458,160,196,178,737,393,132,985,375,511,32,695,523,270,291,298,408,124,720,205,837,20,881,869,905,149,706,639,240,887,872,862,317,348,927,498,518,360,503,519,229,478,890,90,407,150,790,261,479,917,481,866,66,626,975,56,765,361,476,208,224,97,420,288,245,163,797,440,355,199,833,530,876,75,47,359,108,781,528,536,96,301,377,39,551,939,144,242,410,21,842,313,52,43,623,860,992,928,681,684,146,671,601,19,10,463,965,902,102,236,438,977,231,271,682,89,662,575,152,717,492,414,827,795,328,729,216,817,686,402,507,782,976,622,164,628,995,262,728,627,477,715,263,123,286,166,244,930,289,824,254,455,380,389,105,697,560,951,247,372,801,599,484,635,333,753,187,182,287,23,3,612,677,844,158,974,324,466,25,76,914,654,460,630,690,30,736,343,197,116,272,184,756,940,371,141,857,352,774,574,648,267,854,526,922,411,850,509,273,283,894,99,396,633,462,226,584,207,804,714,590,339,745,147,643,381,192,856,384,742,836,632,794,604,357,397,908,46,708,515,533,957,867,534,346,459,202,954,527,814,634,413,321,994,65,525,491,945,740,214,796,118,963,445,83,104,248,953,404,803,68,209,785,755,266,768,170,709,218,334,986,743,400,81,130,156,712,938,264,467,807,433,92,971,167,960,145,865,6,997,175,137,544,734,98,345,961,369,55,188,189,892,735,762,293,232,791,563,702,952,82,337,7,852,106,778,669,613,177,810,981,169,548,512,733,279,474,793,456,603,947,769,516,700,617,710,331,475,203,784,223,874,419,942,650,541,502,701,64,281,919,568,28,373,126,659,179,31,94,759,666,85,13,341,439,586,501,17,151,127,606,531,312,206,982,110,482,840,819,885,295,14,388,454,569,646,546,424,825,148,993,185,761,45,969,581,93,379,449,468,304,135,139,636,966,655,911,386,412,920,658,900,383,16,748,675,843,406,806,309,579,486,895,4,725,220,174,891,448,978,656,490,984,549,128,588,693,409,553,845,877,679,594,537,374,597,59,49,310,616,284,812,446,629,738,823,88,924,921,423,109,861,172,8,443,608,508,136,362,86,444,739,316,596,285,670,903,378,290,120,967,250,786,58,5,354,800,834,618,913,282,252,832,741,540,235,234,190,425,949,946,451,180,595,292,506,69,883,320,387,336,704,555,538,689,465,751,726,44,660,972,831,703,51,80,350,416,186,243,303,71,640,598,485,392,550,821,114,398,382,305,33,469,70,353,664,318,529,859,238,91,84,213,219,356,933,510,35,822,788,830,221,429,624,50,989,193,450,564,667,435,610,687,314,923,399,154,249,760,699,367,495,246,366,886,461,653,504,918,87,391,746,763,72,195,698,255,980,770,441,418,483,2,233,278,60,889,899,306,42,991,405,792,944,615,898,696,773,558,48,67,194,707,688,239,570,260,41,943,63,893,307,983,335,573,999,851,299,212,561,958,552,547,275,258,100,600,358,12,897,676,535,200,215,694,302,183,191,637,691,723,473,514,500,577,776,716,26,591,329,839,815,159,631,826,344,101,572,614,117,545,268,929,171,253,566,916,888,663,277,40,227,941,668,417,230,198,269,783,15,143,934,432,497,580,873,265,522,421,871,347,11,571,593,0,820,713,161,54,948,818,962,327,181,385,642,651,909,496,864,811,758,727,430,38,349,542,906,589,453,57,140,576,390,849,907,168,730,107,489,62,142,926,722,211,493,274,705,829,747,351,532,644,931,621,370,848,74,61,665,520,678,122,996,78,910,750,201,442,138,732,27,494,744,133,319,447,884,115,578,257,37,979,880,625,422,427,772,583,767,779,18,556,308,988,789,990,816,296,436,332,464,315,896,79,777,853,241,882,480,323,256,901,878,325,847,915,488,855,711,718,798,403,259,338,559,129,517,131,395,685,134,719,394,661,276,73,683,251,585,228,787,554,77,912,557,36,775,611,721,539,431,692,799,376,368,731,835,204,672,165,365,973,582,802,868,53,113,904,22,645,925,964,326]","arrowright","0","9","200","1000","[""0092_N1000_K0200_NOCLIQUE"",""0022_N1000_K0200_CLIQUE""]","","true"
"","","","","","audio-keyboard-response","74","520064","0.0-57.0-0.0-1.0","","null","audio_feedback/right/coin01.mp3","null","","","0","9","200","1000","[""0092_N1000_K0200_NOCLIQUE"",""0022_N1000_K0200_CLIQUE""]","",""
"","","","","","canvas-keyboard-response","75","522295","0.0-58.0-0.0-0.0","","1026","","arrowright","[979,24,834,103,794,725,551,86,559,726,701,254,539,949,118,373,541,614,448,155,519,540,758,874,152,342,502,106,172,372,638,159,66,672,528,234,110,580,74,217,97,310,615,25,604,255,953,926,479,289,423,557,782,144,960,272,946,302,202,895,398,409,673,924,762,498,832,665,790,892,355,595,993,376,743,576,125,311,450,822,41,680,256,648,29,766,716,134,990,933,282,1,32,43,283,880,112,624,394,403,276,482,591,627,105,464,997,273,918,884,991,451,630,231,710,148,453,132,261,446,742,756,754,846,939,644,46,623,395,322,288,8,656,792,433,79,495,393,824,337,388,57,605,168,111,222,320,321,567,223,209,10,441,696,550,736,306,838,221,264,351,798,410,345,115,868,211,230,204,55,169,771,853,185,161,143,279,227,108,432,350,242,316,83,588,774,760,340,911,133,184,499,628,333,717,671,882,317,216,271,532,870,257,731,182,285,757,871,698,496,547,707,260,668,240,709,679,121,455,417,263,0,554,585,732,237,572,138,941,374,663,921,314,14,249,238,296,214,785,952,389,344,813,15,553,919,821,474,472,643,452,927,522,733,48,183,241,761,297,370,533,841,848,343,611,162,480,391,179,228,697,801,879,858,931,951,793,573,386,872,603,651,166,62,783,158,803,198,16,18,928,635,180,617,568,27,136,899,444,207,447,560,699,278,171,22,484,714,290,722,440,982,490,936,454,907,996,232,400,295,292,53,312,101,930,706,562,971,330,925,277,912,220,481,245,888,92,889,825,406,78,578,891,724,449,944,781,903,383,664,60,81,713,274,989,564,251,961,957,425,695,69,181,632,65,178,574,602,248,683,976,356,360,763,594,177,173,804,886,494,814,4,40,625,938,497,371,304,119,514,36,689,563,147,303,764,151,426,890,863,649,800,770,887,331,478,749,226,96,755,362,412,739,859,937,365,845,817,631,773,659,339,157,686,469,413,284,854,95,3,385,430,457,456,983,191,998,987,616,146,175,828,301,30,250,618,542,268,984,634,299,516,593,327,590,747,28,898,584,42,600,483,535,622,129,633,988,914,592,384,654,72,897,956,84,201,89,124,669,935,913,471,73,353,328,505,19,187,545,579,408,797,900,38,751,476,208,94,877,508,844,130,153,809,612,509,513,727,613,127,102,369,517,675,475,769,964,752,189,515,967,332,815,267,737,561,128,658,700,571,711,869,975,796,965,807,358,986,544,694,442,64,357,71,955,507,836,940,676,194,818,31,810,436,414,922,901,520,642,687,806,93,840,85,244,626,741,407,405,525,619,943,504,421,973,677,117,239,443,9,120,596,878,463,56,864,318,13,959,287,354,885,375,977,916,416,199,881,827,750,934,660,746,524,902,910,777,387,104,135,831,2,674,598,90,966,666,972,489,141,948,76,116,160,307,531,218,49,830,682,462,802,459,305,753,583,740,850,693,243,323,816,883,325,775,396,200,269,789,812,445,835,738,485,197,5,609,759,123,34,401,893,963,992,735,688,681,581,298,565,486,530,131,636,655,861,347,904,980,650,995,39,856,236,429,336,543,224,458,896,437,309,549,503,422,985,866,142,35,281,195,17,691,37,382,51,215,994,492,427,867,109,570,460,704,431,233,629,98,163,247,466,778,811,690,262,745,915,45,842,377,7,523,150,68,126,653,54,434,137,657,270,154,894,837,404,467,397,6,555,597,537,589,791,326,364,193,920,210,908,313,188,767,77,82,569,909,923,932,852,392,862,26,88,843,566,558,20,399,470,510,548,823,942,196,435,75,315,349,235,156,969,266,61,534,795,857,905,23,685,293,729,575,50,501,819,465,621,47,780,582,87,512,715,100,521,586,252,418,826,114,847,473,419,678,929,962,723,529,641,974,981,229,640,610,367,829,945,556,265,52,662,788,577,190,536,176,122,875,703,70,80,308,335,186,748,461,601,786,799,246,702,170,718,415,165,164,661,999,206,538,352,776,402,860,319,205,720,876,300,518,950,779,334,280,275,291,359,493,599,11,947,587,954,363,253,820,607,99,63,113,784,608,719,652,506,708,213,768,259,712,620,647,670,420,424,833,917,667,705,721,258,149,368,958,390,728,167,744,772,491,428,787,855,324,765,468,487,294,203,439,606,145,219,380,139,906,67,730,329,348,546,968,865,381,488,500,174,552,379,438,338,59,970,734,645,107,21,361,44,692,873,341,527,978,639,378,851,366,477,511,637,411,839,849,212,684,346,646,808,192,805,58,225,286,33,91,12,526,140]","arrowright","0","10","183","1000","[""0048_N1000_K0183_NOCLIQUE"",""0023_N1000_K0183_CLIQUE""]","","true"
"","","","","","audio-keyboard-response","76","523315","0.0-58.0-0.0-1.0","","null","audio_feedback/right/coin01.mp3","null","","","0","10","183","1000","[""0048_N1000_K0183_NOCLIQUE"",""0023_N1000_K0183_CLIQUE""]","",""
"","","","","","canvas-keyboard-response","77","525262","0.0-59.0-0.0-0.0","","765","","arrowleft","[764,580,205,327,285,861,158,878,444,403,608,38,453,309,553,803,698,977,78,674,676,627,882,315,252,753,533,31,389,823,222,27,262,744,670,504,955,577,463,192,77,386,604,891,275,528,848,970,199,559,178,482,982,762,480,671,862,360,144,929,394,120,198,212,490,421,385,611,42,450,804,564,83,464,349,675,794,569,867,665,636,377,239,681,759,387,704,543,769,905,310,673,716,572,632,268,339,365,179,44,459,694,667,780,917,512,660,46,526,795,468,755,887,657,818,711,701,266,554,449,126,30,638,688,888,987,498,745,202,384,363,727,973,391,999,983,930,550,24,927,621,104,417,41,622,881,413,806,32,225,62,645,592,972,270,960,965,860,33,340,304,538,583,854,947,273,200,136,70,629,740,286,195,137,390,928,431,870,474,712,730,314,63,101,824,883,284,920,844,539,159,978,405,520,64,494,655,980,208,420,59,181,280,469,560,832,119,160,162,961,184,107,362,599,92,997,257,697,889,684,383,940,25,746,448,782,729,600,473,325,72,274,48,380,876,278,781,715,951,507,847,904,296,337,218,441,771,986,869,94,230,397,938,485,820,682,8,836,797,491,188,825,530,971,395,343,409,873,221,135,931,271,369,828,924,263,250,950,535,813,918,628,743,751,425,52,226,967,693,233,949,370,923,508,176,379,822,964,584,406,925,957,723,128,598,173,652,545,602,502,373,247,461,859,668,71,26,631,151,909,618,487,22,6,89,0,760,902,215,13,579,295,919,306,792,80,785,170,663,281,323,191,484,402,898,718,316,243,656,516,140,706,700,846,350,85,737,713,962,190,297,515,308,217,439,603,540,481,536,864,76,21,793,73,388,531,50,127,338,452,544,936,863,446,129,396,562,457,789,646,680,103,547,138,916,500,189,696,492,185,11,35,408,787,722,597,267,258,895,609,777,166,853,788,662,557,943,355,14,721,866,428,113,752,346,672,237,149,61,691,591,510,585,857,334,99,914,180,649,885,525,620,819,110,908,522,653,130,75,956,784,767,625,366,238,146,451,855,783,733,290,65,318,666,40,415,993,228,976,376,229,578,772,81,175,227,726,358,39,642,264,292,124,427,241,817,679,735,169,843,121,399,93,351,695,182,56,254,407,319,57,605,612,333,28,418,948,513,115,519,489,440,558,624,499,154,148,607,856,732,375,242,913,7,288,874,486,968,750,223,497,728,105,43,974,757,581,708,404,934,143,419,742,125,886,637,651,506,106,546,686,707,893,15,455,157,939,567,897,300,915,357,802,749,382,534,988,424,213,739,623,53,761,807,168,3,142,702,717,586,953,353,17,291,361,703,796,479,505,773,644,834,776,255,614,214,322,246,186,734,815,478,493,840,34,348,837,187,634,747,945,90,277,342,801,460,432,601,67,566,589,23,305,573,766,877,165,994,849,211,55,833,354,58,990,462,161,778,839,523,809,312,658,47,20,892,476,132,347,29,527,922,800,374,447,10,975,196,414,774,705,177,503,139,805,880,240,265,341,422,606,532,871,654,541,332,207,765,36,770,203,134,256,174,91,514,910,763,995,661,985,18,812,116,884,372,164,183,54,517,435,303,835,4,108,294,19,588,906,650,677,552,112,563,542,529,998,97,466,458,896,845,685,865,253,626,326,400,714,524,992,619,816,613,69,571,454,689,900,799,118,551,235,814,710,640,926,471,289,942,84,345,1,122,445,244,302,748,283,724,79,981,594,155,433,442,114,301,894,60,423,293,152,821,736,317,851,901,593,979,830,102,991,648,172,779,16,496,95,467,935,331,941,958,576,437,568,903,518,150,82,313,944,193,582,171,811,234,5,430,141,966,775,287,890,359,259,911,88,741,831,381,328,145,669,443,829,96,311,111,98,356,548,678,555,687,615,249,100,899,858,786,574,720,434,272,643,841,123,561,850,201,117,364,946,401,810,411,307,2,587,261,521,495,68,483,392,477,875,269,9,791,194,570,488,565,416,438,826,768,556,276,699,465,109,511,224,398,912,690,251,872,639,852,937,610,596,959,456,617,921,206,45,470,719,954,879,37,984,133,197,429,616,633,335,758,131,231,232,367,324,996,827,336,74,245,798,167,969,282,436,204,329,371,475,472,692,51,647,641,330,352,725,220,738,756,838,575,933,683,709,426,790,279,808,320,537,630,210,501,595,989,321,549,147,12,49,393,298,932,260,156,163,344,248,153,86,842,635,754,731,66,378,87,410,952,659,236,219,368,412,590,509,664,907,963,209,299,868,216]","arrowleft","0","11","183","1000","[""0004_N1000_K0183_CLIQUE"",""0080_N1000_K0183_NOCLIQUE""]","","true"
"","","","","","audio-keyboard-response","78","526263","0.0-59.0-0.0-1.0","","null","audio_feedback/right/coin01.mp3","null","","","0","11","183","1000","[""0004_N1000_K0183_CLIQUE"",""0080_N1000_K0183_NOCLIQUE""]","",""
"","","","","","canvas-keyboard-response","79","528324","0.0-60.0-0.0-0.0","","866","","arrowright","[504,646,734,634,344,878,559,74,338,846,779,116,673,19,247,336,773,141,148,20,539,744,512,243,158,648,134,693,483,275,764,396,669,463,410,608,818,834,181,136,740,319,738,119,952,476,633,446,212,101,4,471,852,901,165,178,661,640,973,188,796,317,761,472,510,776,607,919,928,390,60,419,651,523,40,411,815,643,855,88,75,236,869,518,685,812,50,3,207,722,346,975,79,439,862,822,48,457,242,373,490,756,66,380,114,992,109,851,798,867,612,487,92,432,423,810,249,283,320,545,391,460,785,191,957,5,664,737,167,265,105,956,987,759,368,205,931,452,689,705,496,991,883,433,241,676,311,879,552,951,470,361,235,636,726,133,426,147,229,189,379,388,385,941,797,184,478,788,340,675,284,880,513,638,962,166,814,936,127,107,508,699,566,809,717,889,231,921,291,686,51,354,570,927,454,316,606,637,591,366,356,581,301,102,988,437,187,627,843,146,546,574,568,16,357,660,138,803,298,801,85,707,172,272,724,697,497,876,954,196,790,526,204,621,131,575,582,768,305,541,712,132,948,22,695,493,819,562,900,58,32,76,318,698,274,324,706,749,100,56,784,960,375,9,407,35,567,192,657,665,833,135,690,306,245,469,456,645,674,89,528,842,271,713,981,904,234,982,447,120,783,530,935,507,560,413,500,771,455,86,280,209,983,902,782,484,479,893,794,358,485,519,480,849,99,995,631,944,716,436,588,863,996,421,130,128,299,850,590,450,622,355,820,502,964,175,414,923,793,658,81,406,888,33,477,7,594,735,246,377,596,603,965,908,968,448,94,561,619,90,287,312,934,72,339,999,313,93,113,750,836,169,369,325,71,573,925,752,691,47,290,739,244,296,538,569,535,206,36,584,110,813,253,786,31,223,395,98,307,232,279,160,926,963,273,400,330,718,827,372,817,52,672,27,778,392,835,96,787,401,441,516,53,220,29,678,976,352,404,259,157,416,733,859,547,604,103,28,696,254,873,217,310,461,792,292,106,639,628,763,688,913,890,145,990,601,108,381,624,830,350,303,731,328,895,78,30,399,84,155,754,159,190,360,854,491,753,532,576,474,767,807,11,924,618,667,349,387,489,747,200,151,775,548,154,609,605,443,870,777,841,449,537,195,140,525,910,586,348,894,293,732,332,653,289,856,911,558,203,1,197,614,466,63,255,641,592,258,473,659,464,580,650,43,692,202,218,966,376,829,579,179,755,431,866,903,907,509,556,585,6,257,534,288,522,87,286,277,762,914,233,899,435,804,955,595,252,415,549,838,248,180,872,555,837,251,947,403,969,424,468,364,434,397,285,789,745,993,684,721,670,342,262,654,943,230,917,715,183,124,351,551,438,499,553,269,343,174,922,276,517,425,428,417,129,708,337,896,412,583,857,278,861,772,623,529,341,371,250,17,440,143,971,610,221,97,331,8,239,264,791,177,811,939,69,565,14,176,420,984,208,315,334,261,240,481,62,946,877,905,700,597,59,182,977,322,153,117,937,104,887,162,897,521,647,885,321,45,886,563,353,832,10,683,602,994,711,44,748,511,741,760,54,80,185,210,112,163,898,978,891,933,186,824,831,77,578,864,613,126,823,577,444,152,710,599,263,359,270,550,694,18,611,68,844,746,808,940,121,422,729,486,514,774,70,816,139,543,64,465,226,758,39,655,142,799,642,644,91,25,668,542,979,662,554,82,953,495,383,445,826,728,198,267,309,37,115,853,959,398,370,65,365,617,589,620,409,681,593,55,564,805,626,679,171,806,998,23,122,227,237,224,503,488,680,848,378,871,363,384,266,260,505,629,932,743,199,821,382,682,974,656,333,194,168,727,67,150,193,972,766,757,961,723,938,506,765,701,751,475,300,736,884,216,616,540,213,228,215,845,632,906,615,531,501,61,38,137,630,24,408,144,635,323,149,214,42,335,730,294,687,12,13,492,327,118,663,986,459,536,26,742,222,720,458,671,367,442,571,912,970,15,329,839,915,533,430,429,374,881,345,989,557,34,945,930,875,211,302,308,825,704,173,874,95,725,219,649,544,666,770,929,950,0,156,304,703,462,389,980,123,847,201,453,467,858,652,225,840,295,714,49,865,802,702,405,942,282,677,828,21,111,520,882,451,967,527,719,314,297,402,860,498,170,238,46,494,393,515,347,326,57,892,125,920,600,949,918,427,161,709,256,800,769,268,625,418,394,958,795,985,482,868,73,524,2,281,41,83,780,598,587,164,916,781,362,997,386,572,909]","arrowright","0","12","167","1000","[""0058_N1000_K0167_NOCLIQUE"",""0002_N1000_K0167_CLIQUE""]","","true"
"","","","","","audio-keyboard-response","80","529329","0.0-60.0-0.0-1.0","","null","audio_feedback/right/coin01.mp3","null","","","0","12","167","1000","[""0058_N1000_K0167_NOCLIQUE"",""0002_N1000_K0167_CLIQUE""]","",""
"","","","","","canvas-keyboard-response","81","532051","0.0-61.0-0.0-0.0","","1486","","arrowright","[392,29,436,716,725,929,315,538,453,413,980,843,103,623,350,443,275,220,806,505,782,936,643,252,95,418,403,680,6,78,184,675,617,146,404,906,721,514,335,503,734,34,115,946,763,143,948,289,140,693,506,560,240,454,566,759,898,346,847,452,827,959,398,208,554,98,342,43,166,858,764,968,845,204,401,411,336,510,544,368,44,475,546,362,21,886,126,609,849,604,589,104,444,537,805,828,724,33,345,491,793,19,299,802,37,284,306,51,848,191,857,649,2,800,856,86,151,972,424,169,327,894,530,973,712,797,631,691,285,515,862,309,699,651,682,957,688,990,646,219,215,321,141,757,375,461,645,364,713,608,144,348,550,814,761,955,874,292,361,910,150,312,899,193,324,488,796,873,226,549,448,328,987,216,822,878,694,914,352,75,459,281,755,895,27,70,258,776,931,358,90,137,780,147,633,696,602,958,792,383,821,692,162,799,870,539,447,441,803,119,233,872,428,981,663,581,112,450,615,837,116,970,993,585,642,464,818,91,261,924,56,279,469,677,928,925,956,380,53,339,129,251,571,932,941,223,918,783,909,668,295,998,717,430,390,567,893,774,229,221,529,592,535,206,434,801,157,753,562,903,194,271,607,508,926,844,145,908,152,869,679,128,533,181,767,832,580,3,846,60,630,167,639,264,15,7,978,807,582,334,935,280,386,611,178,975,568,476,351,149,113,225,88,161,732,180,230,214,773,77,591,164,28,195,556,498,624,429,765,983,921,24,950,156,830,393,311,49,942,135,559,318,483,966,695,723,979,460,132,415,588,742,66,777,661,40,426,756,79,670,902,420,766,597,825,794,707,536,402,138,442,920,62,892,96,1,715,122,384,527,703,94,481,999,867,313,265,626,286,603,205,182,775,656,179,71,319,686,563,477,224,542,960,172,479,379,52,584,509,731,478,811,900,323,196,610,234,360,578,836,310,302,613,855,277,267,376,551,174,187,326,678,593,487,681,177,303,997,283,913,817,684,357,647,747,344,494,407,557,965,291,373,627,722,168,400,819,754,744,809,61,190,260,249,905,635,349,228,22,702,889,39,355,666,102,301,974,653,388,406,437,63,256,160,4,163,0,332,263,523,685,669,72,139,720,638,881,945,48,64,520,74,676,227,108,236,619,594,484,36,394,496,136,984,377,951,213,486,42,947,287,875,971,671,658,203,316,276,235,522,462,586,257,73,165,961,524,300,823,485,995,798,268,84,200,97,866,555,659,290,282,672,171,660,389,851,876,414,583,201,432,706,202,641,864,896,904,937,750,468,473,241,576,58,916,625,927,14,31,640,467,964,13,347,923,719,470,516,57,600,730,370,125,274,188,472,587,887,839,378,996,365,374,977,142,598,769,218,739,829,466,790,298,269,242,446,880,431,992,963,868,709,740,133,650,911,482,976,934,433,789,596,622,570,254,628,314,85,16,737,183,296,804,949,465,387,665,834,758,967,861,439,590,497,87,111,297,80,507,831,341,512,859,826,499,833,11,558,231,891,573,367,422,155,547,175,100,736,636,697,25,690,579,599,396,247,786,704,528,20,246,788,232,994,933,545,838,552,278,440,768,55,26,67,733,337,159,457,943,59,785,30,81,791,35,391,860,519,489,816,569,395,883,629,255,92,330,329,455,356,32,93,38,99,939,944,877,751,853,863,262,574,726,69,435,601,197,888,170,762,812,521,779,841,317,664,456,114,372,711,8,502,784,47,158,244,65,667,654,449,366,901,492,307,952,850,82,687,209,752,270,748,500,518,107,239,10,919,148,412,989,810,320,698,9,620,820,808,272,634,101,211,118,340,907,865,46,813,192,606,304,176,632,198,253,210,266,501,83,705,991,525,683,532,425,416,186,134,930,612,409,490,548,511,438,781,305,605,662,760,618,940,534,5,700,50,517,45,637,259,123,207,718,493,12,879,41,504,359,815,471,397,18,273,248,23,382,741,353,985,986,117,199,824,408,871,238,917,109,331,884,735,419,237,68,417,897,885,745,495,423,480,474,173,526,954,410,988,121,938,743,338,738,614,385,621,835,572,427,153,842,749,369,655,982,701,962,553,130,882,648,243,729,451,575,363,969,131,674,217,714,54,644,915,89,212,154,445,308,840,746,890,543,288,565,294,250,343,405,222,727,421,245,354,772,17,458,778,564,185,333,953,561,463,771,922,708,322,541,689,120,912,595,710,124,657,105,76,728,189,325,852,854,110,577,399,371,673,616,106,531,770,127,381,540,513,795,787,652,293]","arrowright","0","13","167","1000","[""0074_N1000_K0167_NOCLIQUE"",""0053_N1000_K0167_CLIQUE""]","","true"
"","","","","","audio-keyboard-response","82","533067","0.0-61.0-0.0-1.0","","null","audio_feedback/right/coin01.mp3","null","","","0","13","167","1000","[""0074_N1000_K0167_NOCLIQUE"",""0053_N1000_K0167_CLIQUE""]","",""
"","","","","","canvas-keyboard-response","83","536814","0.0-62.0-0.0-0.0","","2557",""," ","[34,839,395,283,442,232,953,962,723,497,121,379,898,853,364,843,177,756,500,169,719,430,453,44,807,810,620,482,420,116,350,163,771,872,27,149,335,522,473,951,691,783,801,699,741,804,147,319,95,612,424,560,520,515,782,92,732,414,700,108,443,593,587,552,959,47,228,905,995,427,437,486,315,689,715,543,357,704,956,966,877,685,602,229,219,564,978,677,191,871,803,922,327,304,852,26,933,955,510,271,739,226,180,860,262,819,747,399,616,834,107,244,598,960,309,800,129,261,590,901,748,347,760,694,601,369,56,944,115,714,570,508,900,140,156,652,267,811,41,118,873,51,488,722,904,680,308,377,502,641,194,661,134,578,919,387,775,581,910,846,456,73,82,935,823,881,69,345,815,762,12,924,122,814,119,549,348,599,489,102,886,450,256,81,20,952,912,13,790,265,588,561,143,516,556,550,870,651,897,356,798,802,996,645,247,396,299,666,735,615,835,292,629,339,761,221,93,673,354,211,159,693,708,576,964,954,833,793,746,11,812,301,656,965,537,940,410,89,845,342,136,624,352,829,23,5,974,222,235,750,658,526,669,333,855,513,37,372,58,0,866,799,104,139,622,465,236,365,825,589,145,7,97,114,403,555,423,480,43,946,536,481,358,540,917,94,597,639,820,91,942,856,892,207,816,842,144,643,250,518,521,545,755,916,784,567,867,491,174,393,724,183,998,257,329,957,891,476,633,248,514,318,647,826,517,857,573,506,628,87,531,650,609,744,182,630,532,731,88,712,523,275,25,646,160,637,384,580,774,931,103,359,930,975,882,525,400,31,988,55,592,110,255,466,79,317,665,869,83,360,142,199,475,883,703,574,137,499,310,176,577,22,127,409,402,987,65,664,386,907,303,844,340,939,84,542,841,684,71,563,344,875,157,188,204,621,316,320,603,224,861,330,878,240,305,321,39,923,961,385,660,281,471,150,75,405,252,789,936,649,138,419,373,863,277,472,958,727,438,361,902,968,132,788,949,154,749,452,297,880,200,710,885,128,349,208,341,644,85,417,999,52,745,457,124,538,478,35,164,14,984,375,421,770,131,109,106,153,583,625,38,432,3,547,441,879,445,362,243,57,672,828,40,836,947,238,496,9,713,986,533,353,280,239,950,706,738,463,509,695,111,415,742,289,733,682,209,175,805,246,972,206,324,70,640,524,895,152,254,606,198,813,346,202,455,394,734,231,702,212,659,827,757,796,422,494,534,729,218,697,449,2,311,45,767,868,302,440,213,725,203,186,293,850,701,929,572,519,604,428,272,290,391,332,530,948,504,253,692,242,631,818,559,328,758,764,840,718,17,859,178,976,608,135,210,86,980,374,586,162,696,80,184,382,610,234,433,971,61,607,716,241,418,632,383,46,146,503,287,698,170,19,753,687,269,376,125,249,291,48,185,683,498,8,634,390,777,495,809,381,431,728,28,187,707,66,711,286,595,941,133,426,363,568,368,62,314,569,36,355,68,201,627,165,460,617,565,411,638,60,973,30,155,484,380,53,851,889,528,18,259,865,181,32,276,888,600,158,407,444,21,479,822,997,454,623,334,899,678,662,709,477,838,903,425,77,795,794,766,326,690,343,721,117,10,64,763,312,894,148,963,821,847,751,63,15,938,686,389,436,100,171,655,759,404,123,215,193,969,459,288,792,76,331,468,585,325,217,141,337,548,909,264,932,225,920,99,675,485,906,462,67,285,990,918,613,398,33,336,451,130,274,172,642,786,273,679,78,196,338,913,112,282,663,674,979,300,96,773,447,245,296,429,849,448,989,529,705,539,298,24,4,279,458,551,928,876,605,557,611,779,566,921,830,190,553,113,179,467,854,992,168,370,657,435,765,982,915,237,192,233,49,985,927,667,681,98,392,251,943,797,832,397,754,808,772,582,636,266,945,295,173,470,6,778,817,688,591,501,351,544,412,896,366,579,884,214,278,571,858,967,434,483,487,648,994,270,752,446,167,614,490,726,1,258,781,406,654,230,720,558,785,307,388,223,371,970,189,911,776,413,535,991,74,562,837,260,227,151,512,101,619,493,105,670,322,874,220,736,284,831,378,401,575,126,72,862,983,618,668,268,527,848,16,511,505,594,306,166,492,908,416,546,596,195,323,890,263,90,934,42,205,161,926,993,864,824,768,59,914,717,743,439,737,671,120,584,408,541,54,461,294,464,469,554,981,507,740,29,780,367,474,197,769,216,635,887,791,806,730,787,925,977,937,626,313,893,50,676,653]","arrowright","0","14","150","1000","[""0054_N1000_K0150_NOCLIQUE"",""0083_N1000_K0150_CLIQUE""]","",""
"","","","","","audio-keyboard-response","84","537897","0.0-62.0-0.0-1.0","","null","audio_feedback/shuffles/shuffle01.mp3","null","","","0","14","150","1000","[""0054_N1000_K0150_NOCLIQUE"",""0083_N1000_K0150_CLIQUE""]","",""
"","","","","","canvas-keyboard-response","85","540516","0.0-62.1-0.1-0.1","","1436","","arrowright","[441,402,364,385,377,772,677,510,185,447,196,783,219,353,880,643,269,602,49,310,16,225,344,540,765,970,407,115,129,392,121,565,562,409,959,493,486,203,688,727,881,140,504,379,469,289,351,22,449,204,193,166,875,830,1,861,901,293,523,100,429,373,946,397,246,95,679,822,287,621,571,220,811,473,661,736,142,421,967,613,857,764,10,778,978,161,208,548,582,8,91,433,340,376,920,689,742,524,202,240,145,976,618,876,111,81,280,78,395,179,694,265,168,904,29,181,17,852,516,802,932,592,789,771,158,792,958,470,531,660,919,882,944,206,511,584,810,670,482,695,152,321,995,260,551,311,61,342,264,6,389,69,250,611,329,438,255,641,913,436,895,701,747,51,393,201,336,981,298,743,683,631,607,922,52,416,24,422,461,697,462,741,74,633,858,103,911,793,380,731,860,36,167,450,725,71,370,650,812,107,324,112,149,247,59,147,804,775,975,440,463,297,597,869,669,942,883,272,671,781,590,999,569,870,249,18,327,842,948,712,126,553,424,184,257,892,745,909,153,477,487,555,318,432,706,678,797,467,497,758,480,691,780,966,123,748,937,905,368,656,173,752,468,770,612,554,668,610,563,102,239,222,77,813,925,759,258,114,821,628,502,974,80,164,755,983,388,85,614,186,521,199,594,237,232,182,382,216,575,704,629,67,233,649,253,84,994,710,867,288,26,947,54,788,299,508,57,796,638,774,809,254,383,456,205,210,148,276,14,933,549,136,662,430,732,151,28,261,313,244,472,68,676,301,625,132,165,405,399,639,45,425,359,926,358,572,632,817,949,636,3,484,406,729,740,76,964,307,12,890,2,356,458,873,654,851,189,941,762,35,786,824,841,719,82,945,646,96,982,137,150,89,782,90,526,338,567,483,658,570,596,4,328,992,634,33,854,938,231,720,993,709,428,721,539,361,83,956,512,455,923,985,386,848,444,543,505,527,296,898,290,427,991,534,805,914,930,20,207,154,41,304,494,825,969,11,644,566,122,795,998,997,446,675,460,939,188,39,73,411,826,564,128,578,754,381,814,443,475,750,576,439,739,863,60,794,583,174,918,97,951,337,648,139,705,604,371,935,673,561,437,334,760,119,626,466,896,532,281,971,835,980,274,859,900,899,723,105,707,343,885,897,309,651,459,501,197,556,724,227,415,442,581,423,827,157,44,773,990,273,398,972,894,784,420,92,829,498,955,735,144,831,856,929,135,815,331,877,653,545,777,374,408,271,912,488,130,823,903,341,70,350,171,799,143,190,836,936,500,42,234,558,888,330,292,278,138,332,517,21,283,818,928,684,902,589,464,263,785,109,434,275,977,141,950,285,665,414,515,448,522,302,664,674,492,345,763,266,40,979,834,346,47,769,118,37,27,88,241,996,355,838,816,457,178,682,864,718,198,315,491,372,352,496,557,401,879,400,286,716,828,915,0,294,986,666,663,868,214,506,768,803,968,787,268,333,209,94,560,681,474,43,934,267,183,574,116,213,134,32,541,476,884,776,79,907,734,363,251,270,104,749,761,513,916,194,588,917,435,471,366,699,779,53,365,120,737,387,419,647,93,702,319,192,431,175,325,117,131,652,846,453,110,58,300,31,908,595,559,48,242,412,940,738,445,503,693,862,50,55,874,839,320,23,711,751,465,872,410,623,160,801,987,277,552,224,637,790,200,360,546,87,960,601,56,228,627,34,886,573,591,943,808,585,25,354,714,518,217,396,953,600,609,961,630,259,490,303,529,696,347,162,413,733,291,544,550,314,212,236,169,680,853,528,798,454,659,855,766,616,308,306,893,478,127,394,547,19,717,295,367,170,715,989,499,7,791,687,845,65,832,837,72,635,698,99,800,833,9,404,685,348,844,349,593,690,180,284,229,279,390,417,221,850,485,847,744,113,317,452,843,924,211,256,106,598,252,840,871,965,728,30,362,86,335,495,713,525,235,323,962,326,820,108,248,38,245,146,579,514,223,243,599,603,155,927,605,172,375,615,865,535,645,282,849,530,177,191,887,703,64,963,889,75,655,667,910,692,230,489,606,509,215,542,63,580,339,316,238,101,218,957,746,533,537,163,391,622,159,700,708,866,226,538,642,753,906,156,384,357,640,378,176,507,187,451,520,878,98,891,124,657,586,672,973,587,722,931,418,62,305,620,195,15,568,819,519,369,13,66,479,988,757,756,954,617,46,481,125,726,322,133,426,952,921,807,5,806,767,624,262,312,686,536,984,619,403,730,608,577]","arrowright","0","14","150","1000","[""0054_N1000_K0150_NOCLIQUE"",""0083_N1000_K0150_CLIQUE""]","","true"
"","","","","","audio-keyboard-response","86","541519","0.0-62.1-0.1-1.1","","null","audio_feedback/right/coin01.mp3","null","","","0","14","150","1000","[""0054_N1000_K0150_NOCLIQUE"",""0083_N1000_K0150_CLIQUE""]","",""
