"success","timeout","failed_images","failed_audio","failed_video","trial_type","trial_index","time_elapsed","internal_node_id","view_history","rt","stimulus","response","nodes_order","correct_response","graphs_couple","accuracy","block_index","presentation_index","clique_size","graph_size","graphs_names"
"true","false","[]","[]","[]","preload","0","34","0.0-0.0","","","","","","","","","","","","",""
"","","","","","pavlovia","1","1087","0.0-1.0","","","","","","","","","","","","",""
"","","","","","instructions","2","8172","0.0-2.0","[{""page_index"":0,""viewing_time"":6305},{""page_index"":1,""viewing_time"":776}]","7081","","","","","","","","","","",""
"true","false","[]","[]","[]","preload","3","8217","0.0-3.0","","","","","","","","","","","","",""
"","","","","","instructions","4","22569","0.0-4.0","[{""page_index"":0,""viewing_time"":580},{""page_index"":1,""viewing_time"":241},{""page_index"":2,""viewing_time"":876},{""page_index"":3,""viewing_time"":151},{""page_index"":4,""viewing_time"":149},{""page_index"":5,""viewing_time"":169},{""page_index"":6,""viewing_time"":433},{""page_index"":7,""viewing_time"":187},{""page_index"":8,""viewing_time"":172},{""page_index"":9,""viewing_time"":159},{""page_index"":10,""viewing_time"":161},{""page_index"":11,""viewing_time"":363},{""page_index"":12,""viewing_time"":145},{""page_index"":13,""viewing_time"":162},{""page_index"":14,""viewing_time"":167},{""page_index"":15,""viewing_time"":349},{""page_index"":16,""viewing_time"":118},{""page_index"":17,""viewing_time"":160},{""page_index"":18,""viewing_time"":133},{""page_index"":19,""viewing_time"":301},{""page_index"":20,""viewing_time"":363},{""page_index"":21,""viewing_time"":416},{""page_index"":22,""viewing_time"":170},{""page_index"":23,""viewing_time"":189},{""page_index"":24,""viewing_time"":319},{""page_index"":25,""viewing_time"":181},{""page_index"":26,""viewing_time"":184},{""page_index"":27,""viewing_time"":172},{""page_index"":28,""viewing_time"":371},{""page_index"":29,""viewing_time"":297},{""page_index"":30,""viewing_time"":193},{""page_index"":31,""viewing_time"":192},{""page_index"":32,""viewing_time"":777},{""page_index"":33,""viewing_time"":188},{""page_index"":34,""viewing_time"":192},{""page_index"":35,""viewing_time"":261},{""page_index"":36,""viewing_time"":546},{""page_index"":37,""viewing_time"":208},{""page_index"":38,""viewing_time"":197},{""page_index"":39,""viewing_time"":213},{""page_index"":40,""viewing_time"":415},{""page_index"":41,""viewing_time"":252},{""page_index"":42,""viewing_time"":237},{""page_index"":43,""viewing_time"":292},{""page_index"":44,""viewing_time"":261},{""page_index"":45,""viewing_time"":409},{""page_index"":46,""viewing_time"":236},{""page_index"":47,""viewing_time"":221},{""page_index"":48,""viewing_time"":227},{""page_index"":49,""viewing_time"":239},{""page_index"":50,""viewing_time"":478},{""page_index"":51,""viewing_time"":281}]","14351","","","","","","","","","","",""
"","","","","","instructions","5","23328","0.0-5.0","[{""page_index"":0,""viewing_time"":759}]","759","","","","","","","","","","",""
"true","false","[]","[]","[]","preload","6","23363","0.0-6.0","","","","","","","","","","","","",""
"","","","","","image-keyboard-response","7","24679","0.0-7.0","","1314","tutorial/task_familiarization_images/part 1/01_N160_K90_cliqueRight_question1.PNG"," ","","","","","","","","",""
"","","","","","image-keyboard-response","8","24897","0.0-8.0","","215","tutorial/task_familiarization_images/part 1/02_N160_K90_cliqueRight_question2.PNG"," ","","","","","","","","",""
"","","","","","image-keyboard-response","9","25614","0.0-9.0","","715","tutorial/task_familiarization_images/part 1/03_N160_K90_cliqueRight_question3.PNG","arrowright","","","","","","","","",""
"","","","","","image-keyboard-response","10","26097","0.0-10.0","","480","tutorial/task_familiarization_images/part 1/04_N160_K90_cliqueRight_solution.PNG"," ","","","","","","","","",""
"","","","","","image-keyboard-response","11","26316","0.0-11.0","","218","tutorial/task_familiarization_images/part 1/05_N160_K65_cliqueRight_question1.PNG"," ","","","","","","","","",""
"","","","","","image-keyboard-response","12","26503","0.0-12.0","","186","tutorial/task_familiarization_images/part 1/06_N160_K65_cliqueRight_question2.PNG"," ","","","","","","","","",""
"","","","","","image-keyboard-response","13","27192","0.0-13.0","","687","tutorial/task_familiarization_images/part 1/07_N160_K65_cliqueRight_question3.PNG","arrowright","","","","","","","","",""
"","","","","","image-keyboard-response","14","27736","0.0-14.0","","543","tutorial/task_familiarization_images/part 1/08_N160_K65_cliqueRight_solution.PNG"," ","","","","","","","","",""
"","","","","","image-keyboard-response","15","27920","0.0-15.0","","181","tutorial/task_familiarization_images/part 1/09_N160_K50_cliqueLeft_question1.PNG"," ","","","","","","","","",""
"","","","","","image-keyboard-response","16","28112","0.0-16.0","","189","tutorial/task_familiarization_images/part 1/10_N160_K50_cliqueLeft_question2.PNG"," ","","","","","","","","",""
"","","","","","image-keyboard-response","17","28838","0.0-17.0","","725","tutorial/task_familiarization_images/part 1/11_N160_K50_cliqueLeft_question3.PNG","arrowleft","","","","","","","","",""
"","","","","","image-keyboard-response","18","29562","0.0-18.0","","722","tutorial/task_familiarization_images/part 1/12_N160_K50_cliqueLeft_solution.PNG"," ","","","","","","","","",""
"","","","","","image-keyboard-response","19","29723","0.0-19.0","","160","tutorial/task_familiarization_images/part 1/13_N160_K80_cliqueLeft_question1.PNG"," ","","","","","","","","",""
"","","","","","image-keyboard-response","20","30036","0.0-20.0","","312","tutorial/task_familiarization_images/part 1/14_N160_K80_cliqueLeft_question2.PNG"," ","","","","","","","","",""
"","","","","","image-keyboard-response","21","30873","0.0-21.0","","836","tutorial/task_familiarization_images/part 1/15_N160_K80_cliqueLeft_question3.PNG","arrowleft","","","","","","","","",""
"","","","","","image-keyboard-response","22","31566","0.0-22.0","","691","tutorial/task_familiarization_images/part 1/16_N160_K80_cliqueLeft_solution.PNG"," ","","","","","","","","",""
"","","","","","image-keyboard-response","23","31771","0.0-23.0","","201","tutorial/task_familiarization_images/part 1/17_N160_K40_cliqueRight_question1.PNG"," ","","","","","","","","",""
"","","","","","image-keyboard-response","24","31938","0.0-24.0","","166","tutorial/task_familiarization_images/part 1/18_N160_K40_cliqueRight_question2.PNG"," ","","","","","","","","",""
"","","","","","image-keyboard-response","25","33229","0.0-25.0","","1290","tutorial/task_familiarization_images/part 1/19_N160_K40_cliqueRight_question3.PNG","arrowright","","","","","","","","",""
"","","","","","image-keyboard-response","26","33873","0.0-26.0","","641","tutorial/task_familiarization_images/part 1/20_N160_K40_cliqueRight_solution.PNG"," ","","","","","","","","",""
"","","","","","image-keyboard-response","27","34087","0.0-27.0","","211","tutorial/task_familiarization_images/part 1/21_N160_K70_cliqueLeft_question1.PNG"," ","","","","","","","","",""
"","","","","","image-keyboard-response","28","34261","0.0-28.0","","172","tutorial/task_familiarization_images/part 1/22_N160_K70_cliqueLeft_question2.PNG"," ","","","","","","","","",""
"","","","","","image-keyboard-response","29","34794","0.0-29.0","","531","tutorial/task_familiarization_images/part 1/23_N160_K70_cliqueLeft_question3.PNG","arrowleft","","","","","","","","",""
"","","","","","image-keyboard-response","30","35391","0.0-30.0","","595","tutorial/task_familiarization_images/part 1/24_N160_K70_cliqueLeft_solution.PNG"," ","","","","","","","","",""
"true","false","[]","[]","[]","preload","31","37254","0.0-31.0","","","","","","","","","","","","",""
"","","","","","image-keyboard-response","32","39675","0.0-32.0","","2419","tutorial/task_familiarization_images/part 2/01_160_80_cliqueLeft_withFeedback_1.PNG"," ","","","","","","","","",""
"","","","","","image-keyboard-response","33","40026","0.0-33.0","","350","tutorial/task_familiarization_images/part 2/02_160_80_cliqueLeft_withFeedback_1.PNG"," ","","","","","","","","",""
"","","","","","image-keyboard-response","34","40859","0.0-34.0","","831","tutorial/task_familiarization_images/part 2/03_160_80_cliqueLeft_withFeedback_3.PNG","arrowleft","","","","","","","","",""
"","","","","","image-keyboard-response","35","42006","0.0-35.0","","1145","tutorial/task_familiarization_images/part 2/04_160_80_cliqueLeft_withFeedback_correct.PNG"," ","","","","","","","","",""
"","","","","","image-keyboard-response","36","42439","0.0-36.0","","432","tutorial/task_familiarization_images/part 2/05_160_55_cliqueRight_withFeedback_1.PNG"," ","","","","","","","","",""
"","","","","","image-keyboard-response","37","42741","0.0-37.0","","301","tutorial/task_familiarization_images/part 2/06_160_55_cliqueRight_withFeedback_2.PNG"," ","","","","","","","","",""
"","","","","","image-keyboard-response","38","43388","0.0-38.0","","646","tutorial/task_familiarization_images/part 2/07_160_55_cliqueRight_withFeedback_3.PNG","arrowright","","","","","","","","",""
"","","","","","image-keyboard-response","39","43870","0.0-39.0","","479","tutorial/task_familiarization_images/part 2/08_160_55_cliqueRight_withFeedback_correct.PNG"," ","","","","","","","","",""
"","","","","","image-keyboard-response","40","44139","0.0-40.0","","266","tutorial/task_familiarization_images/part 2/09_160_70_cliqueLeft_withFeedback_1.PNG"," ","","","","","","","","",""
"","","","","","image-keyboard-response","41","44421","0.0-41.0","","280","tutorial/task_familiarization_images/part 2/10_160_70_cliqueLeft_withFeedback_2.PNG"," ","","","","","","","","",""
"","","","","","image-keyboard-response","42","45081","0.0-42.0","","659","tutorial/task_familiarization_images/part 2/11_160_70_cliqueLeft_withFeedback_3.PNG","arrowleft","","","","","","","","",""
"","","","","","image-keyboard-response","43","45499","0.0-43.0","","417","tutorial/task_familiarization_images/part 2/12_160_70_cliqueLeft_withFeedback_correct.PNG"," ","","","","","","","","",""
"","","","","","survey-html-form","44","51043","0.0-44.0","","5542","","{""gender"":""female"",""age"":""25""}","","","","","","","","",""
"","","","","","instructions","45","52082","0.0-45.0","[{""page_index"":0,""viewing_time"":1038}]","1038","","","","","","","","","","",""
"","","","","","html-keyboard-response","46","53087","0.0-46.0-0.0-0.0","","null","Please wait while the experiment is loading...<br><br> (This could take a few minutes, if you are on a slow connection)","null","","","","","","","","",""
"","","","","","html-keyboard-response","47","54100","0.0-46.0-0.1-0.1","","null","Please wait while the experiment is loading...<br><br> (This could take a few minutes, if you are on a slow connection)","null","","","","","","","","",""
"","","","","","html-keyboard-response","48","54763","0.0-46.0-1.0","","661","Experiment has finished loading.<br><br>Press <b>any key</b> to start."," ","","","","","","","","",""
"true","","","","","fullscreen","49","57747","0.0-47.0","","","","","","","","","","","","",""
"","","","","","canvas-keyboard-response","50","60560","0.0-48.0-0.0-0.0","","1568","","arrowleft","[86,544,134,219,506,873,366,93,285,734,202,4,657,664,122,967,816,764,801,846,927,876,304,356,322,249,783,389,326,924,75,330,428,791,16,329,436,844,392,951,263,962,147,968,606,385,534,581,952,582,554,152,815,83,761,22,596,500,347,466,768,586,906,209,809,917,939,471,799,797,525,821,278,53,59,354,903,957,702,37,408,383,713,518,120,12,745,996,985,361,60,432,232,895,189,737,792,513,503,685,646,744,388,925,541,446,418,919,632,689,218,915,900,177,921,622,850,479,496,852,143,627,896,703,350,3,375,365,947,741,864,631,104,765,136,227,71,593,400,794,834,422,198,994,449,105,898,206,84,814,352,706,892,9,820,381,74,822,55,150,146,90,673,102,532,549,572,966,279,26,929,313,138,786,547,300,908,779,811,818,643,558,187,567,167,36,849,57,679,184,858,964,151,948,433,73,910,130,174,265,698,912,515,904,15,95,793,334,788,697,455,327,417,728,100,510,950,106,323,431,499,977,842,65,40,769,512,508,601,551,589,234,261,107,444,672,803,597,537,676,1,776,560,346,884,561,523,370,636,38,674,126,164,576,750,663,78,687,530,628,808,867,312,200,397,132,722,828,489,250,162,468,220,723,654,273,511,331,439,450,806,981,205,639,458,286,414,965,442,695,655,638,445,880,812,524,507,584,789,611,50,302,70,376,64,257,941,886,141,600,872,569,624,531,140,991,866,501,409,41,62,145,384,827,349,889,736,127,668,211,699,577,979,719,272,772,52,840,645,658,31,640,135,656,244,221,301,224,296,426,470,394,497,243,487,427,830,341,930,758,281,324,963,113,111,77,235,197,241,837,693,207,635,514,949,933,887,159,448,692,274,311,58,938,774,94,714,472,978,681,590,282,268,310,609,7,231,367,391,680,411,163,717,467,262,990,823,129,142,909,879,595,848,251,637,412,682,743,475,704,653,303,780,18,987,169,897,573,756,165,931,275,603,916,340,617,434,615,574,785,124,123,89,899,623,817,748,149,318,360,716,190,353,358,526,161,667,212,172,579,35,69,306,914,565,669,460,907,447,666,749,564,975,918,969,463,742,868,575,437,751,863,694,759,253,755,240,620,604,266,213,725,91,29,767,642,76,171,881,178,562,641,180,648,316,462,88,179,529,710,491,920,757,25,851,520,293,395,464,415,482,854,548,81,492,413,568,451,843,771,556,225,404,709,214,276,188,21,343,940,913,720,922,652,993,270,43,661,201,210,614,721,369,865,56,488,891,443,186,166,295,23,291,826,199,33,800,602,248,332,407,28,453,953,192,195,616,24,683,678,766,790,619,831,727,550,484,258,17,684,68,495,477,644,97,935,173,587,486,387,677,196,317,158,701,430,662,571,705,878,390,893,368,869,752,592,533,629,255,782,552,27,871,522,651,128,170,607,246,870,796,711,901,109,20,325,732,157,236,5,478,995,805,473,457,890,521,974,626,675,980,905,763,155,454,314,259,2,351,465,839,61,118,937,618,566,546,290,45,936,997,724,630,338,289,958,319,923,557,348,362,583,125,516,670,747,46,960,984,853,44,502,256,110,245,116,882,802,775,284,242,160,416,185,355,377,82,456,309,11,423,469,971,339,700,191,738,399,49,335,364,401,144,998,944,424,299,333,403,810,690,357,216,87,539,67,254,536,813,860,19,961,215,542,435,928,956,103,770,154,591,222,112,625,80,746,39,233,153,778,519,226,0,505,594,605,833,739,121,847,943,421,545,459,238,494,131,754,972,598,264,294,228,13,535,307,999,707,194,888,553,490,946,176,988,992,373,777,337,182,101,563,298,452,859,203,760,861,959,528,66,559,856,461,932,570,862,342,798,612,762,181,359,527,726,781,292,320,731,875,599,973,380,819,543,740,208,283,688,30,538,98,230,156,480,807,686,474,883,954,580,588,288,665,405,730,874,733,517,425,280,237,308,32,119,386,63,223,660,845,10,986,402,838,540,825,942,393,555,315,239,47,493,836,835,175,363,133,345,260,832,34,96,51,372,204,934,379,485,715,441,735,841,247,328,877,14,498,115,336,691,894,229,804,114,193,955,378,945,117,42,970,269,829,976,406,824,696,787,382,396,79,277,982,621,305,708,183,168,509,712,483,108,297,989,99,440,481,911,92,578,410,633,784,671,476,371,420,139,6,48,217,650,267,148,72,271,287,855,504,429,773,419,608,902,983,659,438,885,610,857,634,137,585,718,729,8,613,344,926,398,252,321,647,649,374,85,54,753,795]","arrowleft","","true","0","0","300","1000","[""0046_N1000_K0300_CLIQUE"",""0049_N1000_K0300_NOCLIQUE""]"
"","","","","","audio-keyboard-response","51","62070","0.0-48.0-0.0-1.0","","null","audio_feedback/right/coin01.mp3","null","","","","","0","0","300","1000","[""0046_N1000_K0300_CLIQUE"",""0049_N1000_K0300_NOCLIQUE""]"
"","","","","","canvas-keyboard-response","52","65248","0.0-49.0-0.0-0.0","","2013","","arrowleft","[430,226,860,640,109,829,498,709,946,787,617,440,697,539,974,203,337,607,536,183,932,952,904,782,479,907,865,456,702,12,282,646,41,519,373,658,683,820,909,345,151,455,624,328,208,673,520,272,529,540,947,647,972,265,45,462,734,583,101,847,504,36,397,72,190,171,324,65,453,552,367,722,358,546,425,426,297,374,274,486,402,769,468,302,16,651,555,705,867,443,989,424,222,154,854,88,510,433,113,728,627,477,988,218,857,227,800,90,933,663,761,614,846,887,817,279,158,794,268,978,815,186,720,896,737,740,652,118,125,326,108,276,11,812,982,68,485,816,224,111,521,565,489,695,236,287,661,875,237,384,564,410,767,516,239,914,993,396,146,9,595,444,580,266,219,760,809,793,921,714,308,286,471,517,845,511,573,542,945,774,179,733,636,366,515,719,466,795,584,973,506,911,776,229,391,321,61,259,267,371,120,246,26,231,46,35,971,107,364,355,503,985,913,242,160,399,753,742,726,560,465,662,220,893,669,689,134,283,608,441,585,880,311,547,528,906,735,157,672,442,667,886,99,33,711,813,723,588,654,799,717,940,675,62,260,922,416,96,965,957,215,114,578,686,648,693,970,591,884,635,193,833,314,524,558,404,490,691,34,329,912,707,235,553,657,243,40,750,162,415,522,997,589,48,514,956,610,280,951,405,878,362,408,123,37,256,52,929,128,331,975,66,855,470,264,71,205,530,987,27,159,306,368,876,891,372,82,732,262,164,808,484,758,944,731,934,141,322,5,837,930,533,613,961,668,478,232,641,247,843,7,379,78,543,467,633,32,258,671,51,629,126,288,255,494,572,133,142,185,445,382,749,692,612,431,172,721,966,903,463,398,464,620,194,699,802,729,2,342,959,182,559,900,527,369,8,746,318,1,752,349,10,394,135,206,554,213,882,377,634,95,851,333,454,805,106,169,567,376,684,315,830,312,70,406,739,892,241,834,419,60,942,764,336,741,773,551,483,670,228,513,39,491,148,642,639,209,450,104,140,924,175,178,409,446,460,500,995,788,145,152,832,69,568,819,359,844,897,85,407,759,29,797,273,124,748,42,481,421,187,581,173,991,889,339,298,344,392,23,383,191,704,659,716,309,587,625,204,869,165,574,577,744,562,768,983,548,156,129,643,796,50,754,990,301,370,967,4,908,656,871,439,781,852,861,679,201,488,385,706,730,252,375,31,161,879,968,780,790,605,28,381,910,941,792,348,676,387,320,284,354,873,207,429,480,223,866,420,678,166,499,680,299,839,411,836,147,341,49,821,948,319,532,786,412,618,701,621,616,79,457,225,507,249,575,994,623,197,804,831,84,950,127,92,898,240,18,534,168,181,74,21,600,798,848,473,666,811,570,674,724,775,756,566,343,664,856,806,771,631,853,177,954,436,14,198,549,905,24,149,544,649,292,351,801,888,814,360,765,132,637,492,762,290,167,335,395,338,300,277,755,632,293,960,403,783,195,745,682,257,596,269,984,725,826,378,963,977,563,526,233,38,586,81,94,926,323,163,170,822,863,939,923,199,56,606,393,550,512,87,174,73,703,22,772,230,698,841,214,791,890,275,155,696,353,590,43,390,598,278,713,291,44,307,427,953,64,937,784,531,325,895,437,19,447,777,862,285,619,434,935,418,251,638,645,112,518,221,476,388,747,955,644,192,25,996,874,139,980,751,211,690,825,738,80,116,497,117,650,628,920,334,677,469,102,535,110,386,30,212,295,789,422,770,317,58,475,868,304,938,899,414,849,100,962,54,150,452,763,122,936,303,428,593,571,660,188,76,217,858,115,238,493,423,687,931,332,925,655,538,137,310,356,47,75,928,97,417,622,352,271,86,885,327,138,665,15,877,248,501,727,330,400,254,57,594,458,0,602,842,346,316,53,818,981,357,119,380,592,883,785,710,289,196,296,496,827,757,561,103,270,340,20,131,969,803,778,576,919,281,98,13,681,3,894,979,389,766,872,438,136,121,448,870,597,435,694,992,472,525,807,210,130,579,850,305,432,918,77,461,653,545,449,828,630,363,474,67,495,184,17,541,216,582,6,743,294,361,916,347,556,487,840,715,245,189,350,859,180,685,93,557,917,253,105,611,91,609,823,708,964,176,234,688,537,523,601,943,569,59,153,976,718,864,261,509,712,901,902,413,144,401,835,313,63,365,244,998,143,986,451,89,810,604,927,83,949,736,958,505,202,838,700,999,824,881,779,200,250,599,626,263,459,482,615,502,508,915,55,603]","arrowleft","","true","0","1","300","1000","[""0017_N1000_K0300_CLIQUE"",""0048_N1000_K0300_NOCLIQUE""]"
"","","","","","audio-keyboard-response","53","66451","0.0-49.0-0.0-1.0","","null","audio_feedback/right/coin01.mp3","null","","","","","0","1","300","1000","[""0017_N1000_K0300_CLIQUE"",""0048_N1000_K0300_NOCLIQUE""]"
"","","","","","canvas-keyboard-response","54","68403","0.0-50.0-0.0-0.0","","710","","arrowright","[883,369,292,334,477,617,469,690,384,981,991,941,126,373,771,180,825,159,471,816,597,171,449,915,714,388,432,517,190,15,65,600,302,957,120,575,364,881,823,286,229,622,289,170,679,326,711,885,961,674,49,672,712,227,325,656,338,488,420,900,896,706,677,715,770,959,532,744,225,668,417,696,122,725,985,260,426,71,327,447,847,529,85,4,243,573,633,45,493,500,731,217,195,304,673,262,654,535,354,301,851,104,374,591,692,695,515,601,342,891,276,311,850,733,872,80,441,913,378,58,775,415,844,976,97,549,639,652,472,611,129,634,123,444,455,489,949,463,621,755,344,524,782,268,214,559,64,555,956,602,649,422,595,571,912,47,577,10,736,280,133,888,189,177,242,193,230,516,766,897,869,76,993,935,636,464,329,924,309,24,181,400,495,650,235,394,852,682,948,8,660,211,484,443,583,458,38,800,138,670,787,250,751,185,702,208,789,228,145,678,942,554,596,349,786,240,116,29,791,404,581,513,196,884,379,352,984,618,499,3,13,826,308,431,399,306,747,148,629,231,480,377,550,33,969,254,424,474,244,860,608,997,727,318,460,839,346,544,31,610,307,700,370,320,213,822,803,333,398,312,849,593,248,920,206,951,590,216,691,277,963,321,781,272,689,434,983,921,42,536,439,256,77,996,100,644,40,140,110,166,151,293,784,973,729,278,402,808,167,553,486,694,846,794,531,543,927,893,566,936,154,855,557,294,337,570,483,331,760,103,462,857,295,801,419,372,127,955,512,533,328,305,548,952,530,735,578,661,1,518,283,202,275,150,960,519,93,541,281,632,527,468,35,631,765,52,188,648,387,562,118,637,923,876,284,709,448,102,397,975,390,971,238,824,724,564,785,875,139,908,160,50,722,288,405,401,769,300,475,774,350,681,56,84,315,107,241,938,683,391,39,768,864,317,259,410,175,204,721,341,197,910,68,70,79,995,954,111,412,726,128,117,461,490,669,758,26,7,988,509,163,795,414,494,149,603,574,623,497,105,887,946,526,510,429,762,934,698,82,868,589,821,628,842,345,261,25,274,713,818,32,663,738,99,863,615,314,986,142,828,680,234,340,60,666,979,218,665,862,594,877,430,330,147,482,642,871,587,964,55,708,53,413,375,157,858,416,874,827,22,452,98,467,777,572,890,505,917,436,101,124,565,889,521,730,418,252,187,626,837,358,361,396,684,567,198,815,606,192,479,382,968,958,371,688,687,221,609,69,119,854,928,749,459,200,106,236,903,179,435,814,767,348,249,347,838,285,614,392,91,409,925,313,336,882,970,999,723,662,113,130,707,965,508,366,88,380,324,905,704,174,335,514,485,657,322,46,718,41,73,655,783,83,454,511,538,191,797,561,296,491,224,919,176,21,966,23,899,359,0,451,779,355,20,212,918,162,466,299,12,481,653,153,545,523,290,18,263,761,258,339,496,878,892,520,14,967,287,793,201,440,972,114,89,635,840,743,492,465,773,582,710,507,246,807,841,470,473,456,478,376,560,75,962,974,319,427,446,646,209,926,267,450,598,940,756,156,502,568,804,522,772,619,271,257,232,576,408,2,745,701,81,356,134,693,834,95,298,992,59,385,43,645,501,906,699,425,266,790,953,728,109,28,867,671,90,351,592,810,902,742,438,421,353,638,316,776,734,750,703,131,740,199,255,845,363,61,937,616,203,904,172,792,251,158,51,86,173,222,994,697,365,716,27,381,879,625,630,832,525,788,812,19,136,580,870,54,667,220,141,403,717,799,407,44,183,748,125,537,759,739,182,856,546,675,901,11,155,239,664,135,809,498,297,950,442,605,9,357,146,685,806,658,833,829,253,836,604,539,453,624,332,362,939,640,987,389,367,264,386,599,37,873,719,588,92,168,476,282,641,303,161,528,865,34,63,859,184,504,980,48,914,540,998,245,613,178,922,796,445,164,586,506,982,269,659,395,30,87,802,737,66,143,6,830,977,813,612,186,754,457,880,310,343,17,368,643,265,848,411,165,932,487,205,112,207,5,219,780,78,843,360,911,990,931,627,820,647,233,933,944,210,273,291,542,753,741,752,620,584,989,57,558,383,393,898,607,831,886,757,137,945,237,534,16,732,720,423,764,226,74,930,144,978,194,433,569,72,579,805,108,223,215,817,853,907,94,916,585,909,705,819,651,503,551,811,778,406,835,152,96,861,895,547,947,929,556,428,132,115,763,676,437,798,866,552,36,746,279,323,270,894,943,169,67,686,62,121,247,563]","arrowright","","true","0","2","267","1000","[""0060_N1000_K0267_NOCLIQUE"",""0045_N1000_K0267_CLIQUE""]"
"","","","","","audio-keyboard-response","55","69591","0.0-50.0-0.0-1.0","","null","audio_feedback/right/coin01.mp3","null","","","","","0","2","267","1000","[""0060_N1000_K0267_NOCLIQUE"",""0045_N1000_K0267_CLIQUE""]"
"","","","","","canvas-keyboard-response","56","70704","0.0-51.0-0.0-0.0","","4",""," ","[124,8,77,538,725,4,166,564,430,899,592,637,369,938,545,381,194,681,956,146,721,793,921,517,579,939,493,877,770,900,727,25,617,663,751,74,974,632,593,733,990,907,562,639,44,625,810,241,280,351,393,950,302,535,670,534,159,122,835,81,966,121,919,561,848,279,529,628,450,183,119,543,294,764,210,218,123,687,22,356,776,52,702,620,840,434,462,495,33,979,309,396,804,411,894,415,36,470,814,656,623,402,978,667,111,59,898,240,244,3,333,602,2,922,857,510,377,707,723,791,260,128,384,800,893,284,138,631,222,475,774,66,683,884,547,908,108,425,490,703,305,418,454,297,704,27,786,630,781,653,442,994,413,494,658,516,608,272,299,364,759,427,35,586,136,75,521,283,49,766,481,537,332,348,87,813,11,460,195,228,743,41,243,729,749,553,503,14,76,113,582,728,711,310,741,693,148,395,352,509,925,371,214,849,38,345,401,101,675,15,611,758,768,342,522,432,334,867,157,156,273,289,763,556,315,426,655,420,958,251,180,665,821,650,808,118,784,829,374,463,633,708,271,421,566,598,980,596,303,155,65,281,971,322,161,601,91,366,242,779,532,627,409,258,145,29,960,86,523,184,483,572,920,215,187,742,570,866,700,397,382,132,573,696,512,143,288,941,737,54,513,524,230,929,226,984,448,876,502,69,870,346,321,854,367,973,880,446,106,942,551,712,179,855,10,830,526,171,635,275,341,487,624,610,891,308,911,173,174,248,18,478,962,135,6,70,186,820,327,918,949,936,713,626,568,565,775,191,847,269,165,5,422,892,313,897,471,428,812,686,594,190,325,253,651,116,731,801,933,669,886,89,245,993,931,368,227,905,82,380,680,831,399,109,869,560,95,539,96,917,252,644,457,659,449,142,331,724,558,326,790,671,817,706,871,515,163,97,841,643,376,340,419,951,798,133,789,438,825,682,833,144,792,757,799,744,264,698,981,930,178,476,895,127,250,328,975,654,199,259,618,717,549,957,115,882,811,843,484,110,883,85,780,249,597,838,131,78,890,660,906,306,528,678,909,365,80,699,753,201,169,965,464,837,595,767,436,807,846,330,266,336,447,30,229,603,772,498,648,129,473,451,205,888,614,286,256,977,987,732,455,672,761,567,185,504,684,114,613,292,200,431,338,383,548,715,773,290,16,285,685,170,863,969,317,726,202,519,444,453,84,692,55,24,88,28,140,912,591,188,323,267,878,23,913,353,904,935,193,231,139,622,864,676,823,719,319,500,196,347,223,688,569,542,361,440,410,853,48,868,0,827,544,546,441,47,362,182,575,208,714,335,497,576,162,953,959,531,816,777,769,852,225,220,486,320,787,571,505,287,496,952,329,408,312,126,932,574,7,788,839,989,1,120,268,391,379,247,206,889,465,555,645,636,107,213,316,710,785,629,31,861,673,314,100,277,53,738,257,61,237,459,879,961,466,26,197,507,255,887,559,996,901,541,105,392,970,233,104,734,947,616,580,198,604,520,701,554,657,98,691,154,718,263,605,177,819,265,349,896,527,809,189,42,152,398,997,492,276,954,150,946,489,606,982,924,963,141,563,664,461,99,295,468,293,902,915,64,745,304,927,983,662,928,103,485,176,976,806,102,536,370,472,508,872,301,488,68,278,390,730,51,192,354,358,72,944,324,232,943,736,647,130,443,404,694,350,467,756,412,469,998,424,754,58,590,406,274,916,815,385,948,955,32,760,45,40,991,307,147,533,740,585,746,168,986,219,209,885,818,587,482,805,158,999,403,752,666,588,153,291,755,172,298,599,125,834,407,238,518,387,262,134,439,923,311,62,992,164,945,689,795,783,621,414,652,19,234,695,964,296,988,433,634,246,600,910,850,452,995,355,339,405,480,235,344,17,642,389,151,388,859,394,217,437,583,641,638,46,985,968,92,934,845,300,43,363,903,797,429,514,39,359,735,926,578,270,175,506,803,216,607,254,56,716,748,204,212,357,836,491,337,239,417,802,856,60,282,12,112,224,63,318,649,874,181,762,552,828,581,211,13,873,160,137,149,677,844,90,445,796,501,207,914,860,21,674,94,550,709,499,609,530,360,57,619,589,705,9,375,343,771,750,236,584,822,423,167,782,511,668,83,50,477,765,37,697,540,20,479,557,881,661,690,646,456,93,474,720,967,778,858,372,378,972,875,373,865,435,679,826,862,739,71,386,640,221,67,525,400,851,794,937,577,747,612,79,615,416,261,458,203,73,117,722,940,832,34,824,842]","arrowleft","","","0","3","267","1000","[""0097_N1000_K0267_CLIQUE"",""0034_N1000_K0267_NOCLIQUE""]"
"","","","","","audio-keyboard-response","57","71989","0.0-51.0-0.0-1.0","","null","audio_feedback/shuffles/shuffle01.mp3","null","","","","","0","3","267","1000","[""0097_N1000_K0267_CLIQUE"",""0034_N1000_K0267_NOCLIQUE""]"
"","","","","","canvas-keyboard-response","58","74958","0.0-51.1-0.1-0.1","","1805","","arrowleft","[459,91,324,960,463,318,867,157,304,721,648,244,520,909,198,803,450,501,891,141,527,151,853,388,616,329,530,125,821,473,680,564,355,583,60,806,297,654,37,676,42,368,743,923,850,770,397,179,666,973,828,341,253,912,860,712,692,534,983,935,522,675,535,78,392,750,886,674,766,646,959,337,589,908,628,19,317,547,782,556,739,827,153,282,107,174,566,993,120,890,540,933,984,204,714,956,871,887,809,512,708,138,636,389,874,531,166,127,864,800,982,687,188,489,812,111,691,191,359,343,208,627,592,93,678,591,916,75,836,32,454,88,621,11,964,807,288,978,681,294,94,40,466,24,752,980,667,768,182,576,570,779,640,573,762,608,95,305,81,351,331,164,778,549,13,108,9,551,537,170,83,274,704,562,54,735,780,214,313,746,955,496,353,777,16,838,347,352,574,703,528,626,720,724,786,643,168,275,769,369,586,370,53,205,106,658,693,645,605,928,394,518,5,617,526,386,61,213,192,250,817,696,97,795,234,669,254,633,957,421,548,990,303,150,315,609,618,839,542,513,653,441,880,790,824,587,354,620,415,256,215,144,439,856,468,546,834,625,381,272,413,967,810,722,136,590,145,738,43,373,679,472,292,794,484,594,760,897,63,899,641,263,322,635,265,345,199,118,142,410,870,134,825,189,363,146,498,994,975,929,914,251,281,639,131,296,360,104,781,277,685,328,169,706,365,660,22,221,866,849,6,449,894,932,173,575,211,366,403,117,845,799,802,996,233,333,954,217,228,409,425,822,445,418,200,414,763,231,988,857,102,165,62,325,765,239,741,970,23,877,408,183,946,664,143,937,749,279,965,87,417,582,523,375,719,358,572,241,126,430,744,943,950,729,728,833,476,222,995,284,841,76,642,426,892,339,96,8,129,629,398,815,668,74,851,873,185,12,172,584,581,701,41,727,603,713,826,412,246,697,538,72,764,958,767,115,903,524,705,698,847,59,1,918,969,846,148,133,688,385,405,823,220,82,2,167,28,619,492,941,301,652,364,433,435,266,478,223,855,924,525,751,869,344,235,338,332,623,986,787,424,219,895,286,243,44,207,911,663,565,863,48,558,470,401,17,271,80,57,709,152,820,872,160,568,101,113,991,237,479,673,99,930,865,384,638,920,585,614,700,784,378,883,469,875,832,264,31,615,471,147,917,925,361,656,186,181,707,56,428,968,249,38,306,475,630,139,55,508,517,128,480,835,130,135,499,203,140,481,342,670,443,771,761,577,356,514,884,977,194,399,155,404,259,171,195,175,122,371,859,184,774,461,561,949,793,881,797,440,121,553,100,963,952,677,715,73,659,291,622,718,396,209,552,377,550,819,295,649,596,92,252,27,989,882,878,47,506,240,201,529,227,998,474,71,830,829,747,258,85,939,844,457,383,423,336,539,631,672,112,367,187,788,665,854,723,247,906,494,105,309,218,314,35,962,487,987,154,661,533,942,84,302,557,434,913,276,293,811,902,569,796,26,798,662,98,490,69,922,776,323,49,904,156,33,190,310,350,321,51,791,77,114,947,613,407,510,452,754,966,387,775,690,985,992,348,477,124,149,801,116,18,898,671,756,90,711,119,953,610,972,319,951,427,334,416,563,216,432,632,89,30,600,180,161,545,485,442,502,940,493,36,682,261,50,511,901,330,497,455,163,733,495,536,507,730,467,607,340,212,650,862,684,868,936,14,374,737,910,604,225,4,599,893,597,300,3,34,380,934,52,644,997,488,931,226,123,390,595,486,438,177,232,320,503,515,349,132,465,716,725,267,448,268,65,453,290,505,58,657,280,560,532,311,717,555,804,230,888,236,206,109,287,789,732,269,406,843,137,176,178,759,647,885,921,458,567,915,753,391,757,571,402,813,926,86,831,651,814,736,612,979,255,611,482,429,420,316,840,683,197,818,248,686,15,447,20,521,335,783,25,346,196,504,655,896,483,21,431,10,543,945,444,395,559,422,601,491,224,938,393,772,900,852,740,436,837,976,285,624,299,283,270,29,699,411,516,202,710,289,907,382,0,464,702,500,905,602,45,46,593,262,808,734,419,39,372,971,981,327,816,848,842,544,509,312,68,456,755,726,785,805,451,7,79,238,773,103,64,999,637,278,242,758,193,927,919,541,598,742,554,694,400,974,210,519,460,695,634,257,446,944,580,689,298,66,362,376,606,948,731,260,307,229,308,326,961,379,879,588,162,748,876,245,579,70,861,357,858,889,792,578,110,462,745,158,67,159,273,437]","arrowleft","","true","0","3","267","1000","[""0097_N1000_K0267_CLIQUE"",""0034_N1000_K0267_NOCLIQUE""]"
"","","","","","audio-keyboard-response","59","76150","0.0-51.1-0.1-1.1","","null","audio_feedback/right/coin01.mp3","null","","","","","0","3","267","1000","[""0097_N1000_K0267_CLIQUE"",""0034_N1000_K0267_NOCLIQUE""]"
"","","","","","canvas-keyboard-response","60","77975","0.0-52.0-0.0-0.0","","633","","arrowright","[145,28,128,698,293,930,822,604,588,273,612,466,248,960,961,300,657,992,915,968,865,925,834,889,944,659,433,913,201,263,800,23,441,471,272,738,455,678,406,810,941,526,661,213,367,729,520,590,511,776,747,14,594,108,639,143,9,488,73,304,780,870,695,371,683,163,103,262,975,172,240,307,121,984,823,645,851,2,845,977,664,7,600,349,765,310,21,942,560,730,495,672,885,275,528,882,525,71,139,900,412,552,225,138,447,25,473,562,557,701,384,204,843,614,950,671,353,759,551,801,146,31,486,318,733,209,816,654,998,640,613,15,890,283,903,554,313,624,948,220,696,96,484,20,836,767,956,29,886,577,267,333,991,846,806,821,982,377,243,898,519,34,216,952,288,668,219,896,536,258,40,343,838,504,289,78,269,355,10,587,117,813,758,44,320,309,232,185,211,762,558,113,56,410,809,462,215,744,572,120,660,233,446,6,82,196,190,864,503,165,850,382,188,141,253,242,652,598,314,574,342,579,771,322,72,860,994,874,464,360,195,274,183,714,421,732,542,131,830,514,993,331,490,483,430,567,589,628,1,132,62,844,910,330,999,110,308,569,325,130,179,51,438,357,720,397,35,301,5,64,13,239,135,30,907,691,876,582,489,829,428,673,255,327,54,911,951,205,863,297,414,826,710,148,335,943,155,8,278,559,522,149,814,437,827,743,365,912,578,420,555,4,373,818,32,116,546,718,653,94,981,518,832,440,894,463,949,252,571,586,777,203,523,346,58,200,937,61,111,245,711,584,221,970,391,669,404,655,124,651,396,945,891,324,763,684,12,425,445,369,329,474,454,416,27,348,751,634,350,727,336,543,990,477,512,422,48,290,708,22,47,257,924,939,398,692,76,499,351,498,457,576,633,599,815,270,687,983,312,42,423,80,470,798,828,122,405,690,435,53,755,901,515,476,723,931,376,101,700,235,33,803,788,57,926,794,792,644,713,86,704,772,65,358,804,265,485,919,338,26,45,36,978,224,638,467,739,893,667,966,339,632,261,973,452,563,171,212,596,199,934,492,621,547,785,636,399,971,565,622,533,573,456,670,60,561,181,856,892,184,332,50,610,173,719,676,379,996,502,630,679,469,509,831,326,872,434,726,354,544,85,217,426,106,254,619,323,793,521,298,859,905,531,279,789,887,43,321,848,591,392,631,191,394,46,362,908,855,769,37,953,49,735,157,802,115,501,530,144,158,246,19,805,461,627,866,807,756,742,136,281,688,175,374,790,808,237,957,635,189,979,841,100,766,513,914,881,796,344,68,287,75,3,167,118,849,99,539,413,656,105,137,482,946,388,677,280,797,535,616,642,303,717,59,295,439,126,277,532,680,534,107,160,873,837,607,156,41,161,16,334,906,921,247,337,862,352,783,997,606,570,328,226,963,472,549,784,417,541,387,884,932,728,741,618,491,980,375,641,459,689,449,791,928,922,545,716,229,839,935,817,84,786,853,637,626,965,575,291,210,170,969,835,230,722,770,550,595,475,259,104,989,842,867,918,682,725,429,745,114,450,748,854,448,154,174,0,432,92,493,663,868,646,316,415,693,879,186,411,737,453,487,750,540,811,153,468,102,617,364,768,592,923,962,647,166,703,260,497,958,902,340,89,593,182,390,775,933,629,70,888,142,389,431,878,208,820,625,17,909,740,222,299,929,465,824,123,858,168,904,460,97,150,508,458,251,781,662,407,481,760,706,383,109,927,936,206,198,852,451,847,685,674,620,538,218,317,601,666,238,883,869,705,754,761,895,442,585,368,164,527,292,773,603,403,553,774,125,223,385,608,424,66,500,93,757,529,87,177,597,268,871,393,746,282,241,395,52,964,734,345,959,95,702,81,611,112,359,615,127,194,147,986,580,315,697,363,356,709,370,151,380,507,650,227,954,39,731,795,152,480,861,378,880,402,284,444,564,79,202,974,724,609,419,681,214,496,427,857,643,976,566,648,494,311,386,361,197,699,812,583,63,74,779,294,90,988,764,694,91,787,133,658,162,712,418,510,899,24,955,69,134,877,88,721,11,478,940,302,825,605,753,187,306,752,833,228,516,537,271,249,83,916,967,602,436,920,987,736,400,995,18,408,231,548,556,443,98,192,193,305,985,938,140,675,169,623,799,67,517,159,686,972,875,250,782,266,568,409,180,401,285,176,77,840,581,524,286,244,129,178,236,276,319,819,778,749,707,372,207,649,479,505,947,55,665,381,897,264,341,296,917,347,256,506,234,38,366,715,119]","arrowright","","true","0","4","233","1000","[""0040_N1000_K0233_NOCLIQUE"",""0059_N1000_K0233_CLIQUE""]"
"","","","","","audio-keyboard-response","61","79170","0.0-52.0-0.0-1.0","","null","audio_feedback/right/coin01.mp3","null","","","","","0","4","233","1000","[""0040_N1000_K0233_NOCLIQUE"",""0059_N1000_K0233_CLIQUE""]"
"","","","","","canvas-keyboard-response","62","81010","0.0-53.0-0.0-0.0","","642","","arrowleft","[178,174,637,996,279,26,396,475,462,936,104,647,85,18,860,461,741,816,206,310,832,914,288,540,449,567,570,8,781,905,435,361,340,200,899,711,232,669,221,811,964,296,234,58,719,388,923,88,855,414,393,808,857,729,967,758,599,614,30,152,79,673,317,176,376,419,293,807,504,528,538,277,562,313,6,1,847,193,664,687,434,885,935,904,172,710,37,236,985,704,511,299,611,184,171,866,306,142,681,366,187,284,720,476,590,642,92,633,826,595,214,201,386,817,416,481,167,636,942,25,502,384,220,457,770,51,549,887,95,84,520,57,211,941,568,727,368,639,163,767,360,654,771,188,480,256,11,350,981,856,197,70,632,478,130,276,594,674,346,498,483,73,307,298,529,170,456,838,580,315,370,934,559,628,71,377,66,482,779,883,734,591,519,656,365,623,884,295,892,198,840,645,995,548,240,961,164,354,952,958,798,631,553,463,900,335,713,182,63,10,351,787,946,450,749,977,270,701,489,650,533,371,352,527,278,975,824,144,140,814,289,759,865,878,698,842,344,626,413,629,407,115,651,943,3,369,242,231,828,810,670,4,823,268,250,926,667,910,738,980,128,423,903,677,955,891,326,867,454,668,773,864,46,77,141,761,54,503,539,248,796,742,933,443,615,678,136,652,153,348,412,269,355,976,91,459,23,353,14,780,410,658,572,901,662,785,202,938,846,676,912,118,768,229,577,909,898,706,273,22,101,726,81,218,715,560,148,546,638,509,627,931,845,341,895,139,363,804,886,593,390,797,50,604,575,17,114,569,844,917,852,757,169,129,162,815,470,944,381,382,420,648,102,160,146,486,52,641,64,336,119,919,547,799,127,60,597,379,960,291,496,287,571,497,543,429,829,373,747,987,616,896,978,691,191,675,329,756,820,752,192,870,13,525,76,640,947,902,692,446,16,89,227,258,605,507,880,731,876,649,124,928,259,98,391,735,963,358,822,748,93,508,303,882,564,769,125,945,189,495,322,421,789,982,440,523,320,21,606,635,680,695,47,879,149,151,437,28,660,513,686,583,962,155,685,243,913,116,473,573,364,897,408,205,474,427,117,422,940,491,472,83,993,893,890,848,778,154,786,261,801,563,215,601,542,990,5,467,48,203,406,302,173,728,697,318,398,424,581,15,550,602,67,531,835,241,679,161,556,792,458,557,794,409,530,782,950,537,869,693,565,927,300,777,725,554,625,464,297,953,286,209,385,598,362,331,212,989,468,969,588,619,793,126,330,939,809,394,998,194,113,343,534,881,274,596,862,672,921,983,666,305,19,41,907,493,134,2,217,411,733,147,87,226,751,260,402,417,624,383,78,659,906,973,404,776,551,834,689,956,436,851,843,156,722,544,247,103,999,431,389,643,521,166,460,490,661,347,455,894,875,833,723,275,477,555,96,576,836,853,356,131,251,665,806,718,210,688,328,618,743,745,920,281,9,199,175,937,74,839,314,784,159,68,323,262,705,739,254,90,499,158,244,263,120,345,272,392,138,316,818,471,972,374,267,252,586,991,868,69,510,312,908,439,238,12,957,997,791,65,451,40,327,223,285,646,859,442,228,858,500,994,707,831,29,61,145,438,805,671,308,874,33,970,75,522,257,39,578,837,110,325,165,372,168,428,466,216,622,634,621,949,375,7,282,984,333,72,292,755,736,405,740,122,800,111,225,334,24,121,861,783,177,34,608,112,854,319,716,249,819,592,872,485,224,97,951,465,222,311,342,545,109,585,965,514,657,827,38,32,99,20,401,753,684,600,105,181,763,924,515,62,911,403,332,582,746,43,271,183,968,863,283,195,53,630,535,607,825,246,208,717,59,86,378,304,321,237,294,433,418,301,505,737,930,42,190,788,803,357,123,204,760,613,280,484,558,932,219,94,487,233,772,452,447,387,821,708,526,339,584,988,35,812,399,762,712,849,426,380,974,918,448,754,709,888,137,986,245,915,764,441,696,541,714,603,700,492,524,609,501,589,877,702,430,309,579,690,744,730,574,106,180,395,959,494,552,265,108,724,0,359,813,873,135,516,948,213,663,612,802,566,45,916,775,445,397,766,290,694,790,266,230,133,56,44,179,925,617,185,107,871,100,765,143,367,506,512,703,80,415,324,971,532,479,732,337,400,750,655,992,979,27,469,561,966,425,150,536,644,929,55,889,196,82,610,699,255,653,517,841,682,830,235,488,620,453,587,338,721,922,186,349,207,36,774,432,264,795,850,954,444,157,253,132,683,49,518,239,31]","arrowleft","","true","0","5","233","1000","[""0002_N1000_K0233_CLIQUE"",""0068_N1000_K0233_NOCLIQUE""]"
"","","","","","audio-keyboard-response","63","82209","0.0-53.0-0.0-1.0","","null","audio_feedback/right/coin01.mp3","null","","","","","0","5","233","1000","[""0002_N1000_K0233_CLIQUE"",""0068_N1000_K0233_NOCLIQUE""]"
"","","","","","canvas-keyboard-response","64","84102","0.0-54.0-0.0-0.0","","671","","arrowright","[654,639,242,6,524,618,916,851,700,199,131,781,151,797,756,489,659,364,355,820,383,62,441,766,128,780,768,351,244,410,995,961,101,57,257,56,505,924,677,498,616,63,279,444,58,374,339,721,762,426,988,284,347,352,795,300,896,221,487,389,852,311,579,789,142,751,532,241,120,598,304,294,877,157,454,584,471,623,670,499,5,1,115,67,333,274,187,18,170,4,801,224,608,465,953,391,857,806,247,469,96,637,946,519,308,373,884,409,606,488,888,253,111,332,601,887,159,461,522,491,715,443,481,589,791,271,428,528,74,745,540,356,55,289,37,40,873,114,375,534,250,739,431,478,545,237,380,495,125,9,501,324,708,384,629,423,367,500,592,202,80,79,472,951,243,675,818,291,316,214,567,275,628,621,674,594,240,49,345,926,327,945,122,533,344,718,277,535,52,302,329,33,460,785,989,359,146,713,266,611,520,980,229,630,297,362,962,485,911,282,761,258,483,774,517,459,248,986,537,216,451,529,727,578,245,482,164,13,207,899,456,772,707,303,595,776,680,948,219,217,371,784,764,408,759,259,821,923,733,825,181,607,588,369,509,78,102,876,815,119,957,262,255,846,901,464,865,730,400,504,710,36,743,942,845,511,950,24,346,827,70,458,773,794,399,90,549,260,515,921,280,263,10,108,445,136,176,992,342,27,831,295,32,530,880,218,686,910,833,95,89,648,590,497,283,447,902,208,144,11,943,296,184,414,798,576,312,363,475,696,448,104,307,883,97,335,453,112,213,777,741,189,526,671,138,348,692,429,693,808,381,731,757,319,583,470,662,326,503,167,622,19,12,174,16,788,510,350,28,682,678,725,867,61,840,46,474,593,920,124,382,17,681,233,192,126,847,7,388,698,177,913,684,620,786,967,890,971,960,726,866,723,72,354,918,871,685,26,543,560,22,44,970,617,734,755,440,172,20,264,525,853,811,546,586,972,719,635,779,663,191,744,975,548,358,161,914,479,903,220,531,859,190,574,895,799,800,494,746,210,168,110,551,88,23,702,932,401,979,127,754,180,430,251,103,597,909,91,462,298,555,834,968,377,81,596,835,937,966,292,185,84,672,908,882,976,861,557,150,683,558,577,906,404,54,113,581,204,446,39,664,575,869,506,679,935,424,958,905,412,638,421,134,660,817,952,71,66,843,714,769,269,140,420,385,130,196,694,934,643,580,591,728,272,542,314,651,442,357,205,261,141,318,610,752,763,162,34,305,653,246,48,0,301,999,564,676,343,527,439,198,864,753,936,984,323,539,163,249,704,661,885,566,365,563,94,516,928,166,405,466,898,850,735,642,75,60,839,647,158,738,232,656,403,974,554,978,804,175,604,872,360,14,862,206,30,904,605,559,897,941,29,236,985,341,631,572,742,276,609,450,844,878,929,143,118,717,933,886,657,740,231,816,338,912,570,306,416,900,93,802,372,467,729,964,452,688,457,796,379,313,436,848,809,437,724,965,787,868,287,235,931,310,837,922,915,386,320,991,361,553,565,646,268,858,376,315,366,547,514,8,77,155,977,411,770,38,226,632,178,705,156,212,476,824,658,701,21,599,390,765,709,749,691,215,234,135,188,699,810,397,171,254,225,602,149,556,998,413,193,626,634,68,736,603,807,536,105,195,582,154,552,82,722,256,720,587,695,982,270,969,636,760,455,395,415,417,541,117,53,273,109,625,842,667,819,758,433,139,132,893,523,585,863,50,203,836,278,121,927,76,568,59,331,47,987,183,737,955,849,123,328,649,197,512,340,407,69,387,484,2,803,435,832,86,31,997,917,518,690,544,892,571,641,645,45,309,432,939,996,569,107,879,179,790,703,538,870,550,228,613,73,85,100,92,3,152,513,222,994,712,841,477,633,396,830,330,299,25,644,652,137,490,907,668,940,317,615,829,813,486,640,35,186,600,944,106,43,468,750,238,41,227,230,83,438,129,716,697,153,561,286,619,508,767,993,406,288,394,65,419,473,336,822,422,706,673,687,200,209,938,627,775,881,990,521,334,182,793,42,925,321,173,392,252,267,855,145,612,689,64,15,748,393,223,956,493,463,669,98,293,349,614,418,919,624,782,828,353,814,856,290,402,805,711,169,891,854,823,963,368,954,496,732,889,875,771,160,51,434,99,838,573,860,792,116,778,265,148,949,322,194,826,812,427,133,783,665,87,239,492,285,425,650,370,201,655,449,147,211,930,502,959,480,973,378,562,894,983,747,666,507,874,337,398,981,281,165,947,325]","arrowright","","true","0","6","217","1000","[""0013_N1000_K0217_NOCLIQUE"",""0042_N1000_K0217_CLIQUE""]"
"","","","","","audio-keyboard-response","65","85289","0.0-54.0-0.0-1.0","","null","audio_feedback/right/coin01.mp3","null","","","","","0","6","217","1000","[""0013_N1000_K0217_NOCLIQUE"",""0042_N1000_K0217_CLIQUE""]"
"","","","","","canvas-keyboard-response","66","87199","0.0-55.0-0.0-0.0","","744","","arrowright","[555,23,34,342,247,984,181,429,264,771,672,549,375,584,399,160,724,684,126,113,815,818,914,609,412,72,809,68,909,331,18,470,169,141,735,545,276,313,236,517,795,227,983,168,407,184,303,4,990,477,614,758,673,551,638,312,516,791,458,822,123,323,660,182,295,62,681,135,636,954,198,364,661,648,911,12,743,139,674,690,503,995,835,829,749,455,747,99,938,952,732,76,951,373,424,714,392,639,195,766,505,917,333,101,38,923,191,146,396,300,58,64,496,325,186,978,497,564,819,25,445,678,504,77,44,33,61,306,6,209,523,158,402,572,970,19,840,524,263,162,971,241,781,31,943,293,805,108,894,950,107,219,145,862,734,945,867,278,208,330,692,231,531,310,586,224,432,463,729,488,861,3,448,109,887,982,148,997,239,427,416,589,864,418,185,346,212,501,540,327,79,280,869,188,782,243,740,22,702,147,384,282,444,204,8,268,363,394,451,5,80,706,927,467,298,1,543,920,552,318,245,336,597,322,408,926,722,349,821,610,774,816,948,884,845,870,492,519,518,974,663,655,89,114,955,171,449,472,285,848,490,668,221,542,860,434,183,479,649,975,296,730,634,344,485,106,348,912,104,213,900,14,961,228,254,214,291,45,401,482,190,633,450,687,989,350,403,644,521,677,334,957,438,807,578,806,680,772,447,360,897,764,92,577,630,757,773,712,478,544,993,566,420,163,13,94,216,304,654,142,905,623,234,354,875,979,457,733,15,506,460,464,138,382,671,351,252,211,631,287,53,266,946,825,683,380,235,665,343,892,417,83,43,359,587,841,326,891,919,656,695,893,802,651,886,977,265,515,601,804,646,962,155,865,48,134,222,755,787,769,931,194,842,789,355,761,573,925,608,700,666,796,708,337,567,314,159,940,574,446,691,383,170,69,232,800,40,90,514,154,439,626,352,110,721,670,335,149,832,694,599,530,465,705,30,111,271,602,27,570,765,508,0,981,37,189,751,913,166,173,371,877,726,780,51,84,776,379,718,409,779,930,230,527,973,132,794,150,941,273,358,307,153,834,329,707,143,253,91,719,370,613,645,356,831,762,998,256,568,697,405,612,625,748,693,217,583,178,965,704,837,628,830,522,82,675,54,246,283,426,956,187,115,65,75,461,456,858,788,422,658,801,999,390,739,541,41,459,118,368,881,431,7,267,799,889,963,579,820,324,627,105,498,381,102,430,425,808,260,421,605,376,225,507,759,281,847,571,39,66,85,125,558,580,493,489,340,717,311,595,277,810,317,723,986,121,803,473,289,554,813,916,309,793,290,453,548,201,959,70,868,262,218,576,823,783,11,433,29,475,624,879,71,345,151,206,249,284,797,24,698,874,316,474,537,119,703,338,833,320,391,885,768,261,934,745,328,332,619,176,742,200,366,784,415,792,964,361,667,46,411,378,357,513,441,442,120,652,617,908,250,996,321,315,550,435,562,953,319,741,301,229,711,716,238,553,374,640,386,156,967,606,987,621,133,976,715,882,395,59,35,736,620,846,854,257,647,112,849,873,937,500,559,127,560,269,520,398,933,767,775,60,637,128,814,844,947,935,611,650,237,491,588,389,958,525,915,763,172,73,901,226,286,906,486,828,93,643,393,604,308,180,972,547,10,991,994,471,203,863,452,592,67,274,98,528,466,659,305,622,596,259,454,509,248,556,495,103,164,843,824,483,469,760,210,400,969,907,511,197,529,635,701,297,480,939,404,876,437,377,929,50,74,569,669,836,653,720,641,756,918,851,922,615,591,936,294,752,207,258,255,414,494,944,898,899,16,199,921,95,557,590,20,28,32,339,676,242,904,42,177,890,713,136,910,140,682,367,632,594,137,710,770,598,122,96,581,826,600,575,362,565,538,387,205,47,662,738,526,468,744,777,750,288,896,533,279,924,157,413,347,798,512,582,49,960,992,618,727,196,546,942,484,852,78,985,223,880,968,812,859,406,21,292,302,883,966,778,928,161,220,341,790,487,689,130,686,17,616,179,902,607,215,685,36,679,81,872,272,838,388,124,116,2,117,56,481,299,193,746,949,410,476,192,240,244,754,709,436,233,629,688,535,251,131,603,871,785,980,539,129,903,664,419,657,52,26,372,499,811,534,878,888,988,428,696,353,502,86,585,561,462,563,88,87,174,397,100,144,536,853,753,9,932,817,895,275,175,270,728,57,369,63,97,152,167,440,839,855,423,385,699,731,856,55,365,737,866,165,725,593,786,532,850,827,642,443,857,202,510]","arrowright","","true","0","7","217","1000","[""0058_N1000_K0217_NOCLIQUE"",""0095_N1000_K0217_CLIQUE""]"
"","","","","","audio-keyboard-response","67","88389","0.0-55.0-0.0-1.0","","null","audio_feedback/right/coin01.mp3","null","","","","","0","7","217","1000","[""0058_N1000_K0217_NOCLIQUE"",""0095_N1000_K0217_CLIQUE""]"
"","","","","","canvas-keyboard-response","68","90381","0.0-56.0-0.0-0.0","","832","","arrowright","[971,317,583,261,711,246,770,524,119,698,456,813,482,110,446,418,934,345,871,43,531,665,379,234,430,101,940,302,71,112,725,954,782,694,167,800,87,820,393,67,890,829,179,904,95,624,69,576,792,346,314,929,294,435,735,134,42,98,877,515,230,512,319,704,136,594,780,60,587,453,237,324,270,695,847,859,188,960,933,830,181,448,832,753,844,15,306,258,779,411,569,213,259,860,503,74,64,679,560,176,727,998,787,65,24,265,429,287,674,103,107,250,332,682,92,786,303,759,18,397,610,271,106,310,20,723,211,889,219,334,597,62,526,360,806,987,997,339,347,371,734,83,143,115,863,206,330,28,953,493,855,661,916,122,376,783,10,467,684,242,428,395,572,350,504,604,838,896,558,142,489,899,56,602,398,151,486,891,82,819,283,970,321,946,552,131,361,575,77,700,144,593,97,231,848,348,874,388,63,584,296,2,703,470,452,414,810,161,41,162,439,663,48,589,841,338,404,910,959,744,521,757,289,202,313,923,840,672,336,888,992,81,528,646,581,196,159,415,596,926,293,784,441,605,473,172,932,758,913,641,443,828,212,318,825,957,736,738,811,983,362,120,299,788,195,660,668,17,410,556,902,823,420,814,381,461,930,252,549,816,875,595,163,767,308,249,737,794,38,440,100,882,681,617,601,815,274,494,268,449,903,76,557,868,885,845,49,947,975,356,90,986,977,799,883,193,355,856,8,629,505,474,450,354,178,94,61,778,39,378,588,116,153,73,676,468,615,990,91,229,218,272,881,561,591,945,358,227,540,590,537,599,139,768,724,550,609,958,671,606,455,431,638,669,733,458,267,488,50,721,220,16,333,642,925,156,84,54,713,405,37,616,659,316,35,359,546,21,256,621,445,884,177,203,751,194,32,262,133,865,386,145,412,3,129,369,305,280,536,981,655,315,185,255,462,914,243,689,442,613,699,6,238,750,349,155,639,755,861,541,266,941,579,921,534,719,687,137,226,964,943,513,761,152,717,822,416,522,284,931,408,500,867,731,912,631,277,701,955,190,530,654,447,705,301,607,801,174,511,34,650,709,232,827,491,978,374,40,969,323,523,464,263,44,749,532,678,740,186,209,585,909,117,479,300,961,568,352,706,608,936,247,582,922,802,394,837,917,775,68,124,796,785,966,962,849,894,244,396,781,809,525,649,715,422,976,559,872,189,716,995,335,434,427,210,375,454,892,963,857,344,658,843,544,939,592,570,547,223,72,311,46,938,949,9,228,991,686,707,380,878,640,586,245,36,743,726,580,392,603,297,807,685,475,423,548,643,93,497,170,732,623,501,402,741,895,508,29,886,745,935,942,52,466,625,201,996,498,967,353,421,329,45,833,55,973,618,141,539,251,180,79,918,240,509,215,66,619,627,495,632,25,436,688,666,748,432,368,611,652,7,760,390,898,664,182,384,451,984,951,197,382,651,239,873,138,391,273,714,720,999,191,118,484,728,911,836,276,286,906,839,670,111,821,573,233,774,288,673,325,19,123,58,598,562,407,826,320,988,70,158,496,554,169,221,295,304,645,636,683,535,426,905,433,571,192,765,817,612,600,690,798,862,260,980,565,542,184,637,130,278,680,214,377,236,516,370,438,357,771,183,205,51,109,790,254,208,529,477,718,372,766,835,887,502,224,298,634,974,31,269,149,850,647,824,928,648,566,656,406,322,413,492,944,0,747,166,657,485,292,248,968,853,198,901,487,102,551,795,282,851,950,290,729,127,204,328,563,146,692,628,956,222,691,527,667,140,387,754,409,675,490,803,858,842,519,5,351,972,337,4,793,808,897,11,235,533,752,869,114,113,121,78,697,200,762,773,241,373,399,165,326,520,622,514,993,160,275,852,108,777,879,696,480,708,769,907,574,389,742,870,33,952,257,919,128,400,57,818,281,13,555,279,776,463,633,168,564,22,693,285,834,460,804,47,401,924,437,915,982,217,216,908,722,340,1,89,225,635,53,135,507,148,797,483,644,831,979,476,150,653,630,171,207,105,88,307,85,341,364,499,543,471,730,59,553,469,27,342,331,789,327,147,132,577,312,481,985,187,465,702,677,518,104,459,96,26,417,175,12,746,756,764,126,920,472,75,367,199,125,403,893,154,385,948,994,510,291,478,538,763,99,365,444,425,23,506,264,866,620,710,30,614,424,880,419,457,626,965,363,14,927,164,517,383,157,812,989,80,567,173,343,366,854,309,253,772,846,578,805,86,937,900,864,791,739,876,712,545,662]","arrowright","","true","0","8","200","1000","[""0100_N1000_K0200_NOCLIQUE"",""0017_N1000_K0200_CLIQUE""]"
"","","","","","audio-keyboard-response","69","91568","0.0-56.0-0.0-1.0","","null","audio_feedback/right/coin01.mp3","null","","","","","0","8","200","1000","[""0100_N1000_K0200_NOCLIQUE"",""0017_N1000_K0200_CLIQUE""]"
"","","","","","canvas-keyboard-response","70","93514","0.0-57.0-0.0-0.0","","744","","arrowright","[462,161,678,688,982,372,51,278,347,191,211,142,551,672,600,86,735,753,400,748,377,587,159,811,276,35,117,327,770,628,18,130,677,844,127,345,965,206,895,909,46,209,107,674,831,800,476,382,104,508,679,313,947,532,858,76,383,413,109,545,583,527,349,305,70,222,145,168,254,258,350,296,477,993,633,659,821,151,221,194,892,483,664,17,58,15,446,513,745,854,179,582,80,623,849,386,378,196,396,171,338,776,952,976,922,978,657,9,240,143,555,22,720,739,836,564,371,122,390,360,642,907,427,890,859,328,24,586,259,990,938,590,325,449,671,802,34,126,440,695,387,755,444,694,562,560,602,561,630,957,591,651,154,756,441,115,757,337,169,663,223,552,262,261,725,119,432,588,31,355,39,420,870,953,781,465,78,279,239,926,197,523,808,29,592,77,852,622,876,682,297,189,857,415,172,501,987,385,935,431,930,408,919,530,970,238,954,498,439,889,406,881,136,754,686,616,260,536,943,884,818,11,103,992,621,610,467,44,882,36,480,217,910,698,524,797,925,163,149,817,556,137,929,220,779,63,433,863,287,231,0,937,329,673,244,118,125,775,565,774,419,366,437,681,273,783,864,255,472,428,311,12,490,64,615,559,704,195,216,692,778,79,268,899,330,799,618,376,548,495,71,891,833,442,525,862,53,538,369,888,26,589,675,8,867,466,507,988,323,134,403,639,964,493,468,810,506,91,448,773,23,636,813,911,97,541,820,557,380,697,647,709,314,641,789,707,295,340,658,187,608,880,28,158,402,66,4,765,21,632,652,351,236,73,459,426,768,75,218,496,146,738,251,921,742,669,174,635,573,796,850,705,784,974,574,84,412,303,839,752,111,823,971,357,898,247,344,256,934,626,729,751,969,724,155,714,389,82,375,105,526,69,598,481,878,687,643,343,733,763,469,730,620,275,339,537,597,848,655,660,871,874,550,384,87,764,732,445,700,38,599,761,282,996,248,213,576,288,264,646,879,299,829,716,966,417,791,270,918,570,37,147,358,737,164,596,193,792,640,452,320,572,315,57,47,579,603,33,518,269,838,272,903,312,547,332,298,629,215,825,60,946,747,995,43,399,726,199,713,680,654,16,822,520,528,814,453,373,461,418,901,886,594,379,204,650,486,625,90,868,847,225,883,703,744,67,798,746,989,866,367,241,727,183,450,790,177,676,534,827,250,101,684,316,631,50,553,819,49,335,138,310,210,62,531,252,656,691,131,644,280,581,405,807,81,202,205,286,749,604,283,491,502,914,894,27,959,617,65,936,92,962,769,307,896,20,181,160,920,124,214,294,645,331,624,554,568,500,1,897,229,281,512,522,702,972,184,414,578,409,904,401,32,363,306,454,201,447,981,984,166,237,832,717,341,885,708,362,242,782,627,828,973,567,877,370,607,977,102,975,61,940,365,801,721,803,460,758,226,614,133,986,224,85,998,980,156,503,98,348,997,944,504,94,319,356,780,40,321,182,794,759,743,474,873,595,999,563,309,410,302,719,132,634,931,492,979,152,793,157,263,795,772,188,777,787,816,434,394,961,584,83,933,219,13,354,497,368,740,812,411,153,243,549,601,958,619,464,304,917,662,404,569,271,932,207,267,2,88,106,736,539,422,913,485,266,457,734,511,45,407,649,291,227,471,318,59,963,112,860,865,723,533,425,42,960,529,837,334,585,571,701,667,176,566,397,855,887,324,326,435,120,41,653,542,872,300,741,5,52,950,322,991,760,285,424,521,805,178,690,916,93,290,983,128,612,54,510,89,170,535,68,843,232,235,233,108,478,517,180,826,487,577,56,908,824,715,277,515,712,856,543,162,693,352,928,806,683,95,956,835,456,72,689,364,249,6,284,540,293,173,927,253,514,893,685,55,905,246,605,941,234,906,421,317,915,851,661,939,470,869,841,951,834,731,381,750,140,116,392,393,361,19,484,546,114,473,175,48,767,728,423,100,391,416,7,923,203,666,192,353,710,333,121,257,443,924,985,230,948,762,840,912,809,489,74,346,96,488,593,359,505,955,853,804,135,463,265,994,900,198,451,167,436,129,516,875,438,139,696,10,30,575,519,638,113,208,398,342,301,141,699,786,165,3,945,830,144,613,494,580,245,25,185,558,670,499,395,611,186,482,609,150,718,458,544,785,968,637,200,722,479,388,711,509,815,14,949,788,706,429,861,648,274,902,308,475,430,110,228,771,336,374,942,455,148,967,846,212,668,766,190,606,123,292,845,289,99,842,665]","arrowright","","true","0","9","200","1000","[""0053_N1000_K0200_NOCLIQUE"",""0094_N1000_K0200_CLIQUE""]"
"","","","","","audio-keyboard-response","71","94710","0.0-57.0-0.0-1.0","","null","audio_feedback/right/coin01.mp3","null","","","","","0","9","200","1000","[""0053_N1000_K0200_NOCLIQUE"",""0094_N1000_K0200_CLIQUE""]"
"","","","","","canvas-keyboard-response","72","96505","0.0-58.0-0.0-0.0","","670","","arrowright","[687,489,284,679,983,322,185,377,193,545,302,757,967,52,74,26,659,32,382,762,431,248,286,370,288,598,834,375,301,801,168,348,682,538,523,360,580,214,563,887,648,863,211,105,98,680,745,603,945,210,700,268,324,524,42,175,543,451,862,950,380,702,805,419,574,408,366,985,480,230,432,444,208,856,149,45,439,509,245,775,564,474,391,803,388,34,964,72,844,238,934,19,552,593,29,2,475,171,83,269,313,447,63,335,827,817,440,427,568,715,549,195,242,50,735,303,494,389,753,299,365,787,283,298,95,748,358,441,292,136,760,147,401,621,585,954,987,449,723,513,16,581,493,250,23,352,312,305,75,333,387,686,507,161,742,842,973,980,547,839,499,869,368,17,457,546,716,562,878,992,291,689,905,159,438,628,584,634,156,600,353,282,452,772,99,976,237,635,994,913,139,70,835,379,751,649,295,143,64,771,897,231,943,428,777,725,541,783,736,450,133,767,526,555,100,310,768,797,566,162,582,108,232,650,356,28,746,266,599,300,106,910,902,614,664,293,189,808,51,895,417,855,610,917,505,347,685,693,362,327,516,350,826,137,123,339,901,77,121,612,262,540,506,482,698,765,9,559,179,932,930,361,550,113,752,537,949,3,257,455,637,228,965,810,618,145,640,517,946,893,814,938,799,222,415,36,48,446,675,880,4,812,520,55,769,117,400,755,82,0,624,951,982,110,24,399,30,956,786,672,642,390,726,491,554,218,730,586,481,101,770,778,371,129,471,804,667,60,646,479,669,66,740,655,866,909,336,900,62,561,604,92,937,616,398,134,984,473,595,874,868,929,653,829,633,858,724,221,253,385,729,109,860,821,848,88,346,785,904,423,857,986,918,244,405,325,233,816,576,225,819,57,622,870,864,981,617,124,743,53,871,410,328,966,861,639,206,80,641,10,708,188,341,434,177,332,722,426,469,596,697,903,319,279,558,407,54,381,465,674,265,601,912,397,548,591,443,192,906,927,941,337,645,247,85,527,853,180,815,978,7,334,953,166,668,429,933,662,831,711,317,974,747,939,132,619,825,430,522,533,496,999,578,492,396,93,963,205,308,608,296,207,78,734,309,889,1,445,235,254,625,340,437,251,845,351,960,961,478,285,841,270,41,86,707,392,209,705,157,690,739,271,627,531,671,658,416,331,998,460,11,699,630,688,676,756,647,146,190,530,597,287,885,995,632,828,774,497,534,46,394,536,677,490,39,503,311,629,577,779,240,846,456,515,926,749,519,173,811,502,33,255,518,488,119,607,338,636,931,947,594,454,167,958,644,800,470,354,342,184,112,459,557,891,794,115,278,970,25,483,320,692,706,304,512,795,424,907,718,854,881,666,573,560,872,997,246,896,809,495,256,261,329,710,345,589,22,975,201,529,925,754,219,142,651,65,69,776,849,979,789,216,422,89,38,90,721,202,833,176,969,372,606,13,919,158,761,525,165,652,836,820,160,838,306,236,343,962,27,56,275,511,948,111,349,118,567,592,728,194,661,402,138,43,892,793,620,920,665,631,882,436,213,102,694,626,154,378,922,59,21,125,163,873,824,988,172,186,508,152,448,374,544,94,501,590,914,191,461,602,466,12,148,68,935,116,556,273,263,877,701,35,127,103,435,289,883,542,31,107,570,277,784,521,315,97,114,486,899,876,120,733,840,993,535,141,199,174,84,40,660,357,583,264,243,942,798,732,908,376,989,344,865,484,605,720,727,764,61,280,217,49,990,155,383,234,936,940,888,183,229,476,788,532,924,572,886,923,472,571,837,20,5,326,744,654,696,239,851,318,884,126,477,294,684,37,575,818,944,418,260,731,321,498,462,290,203,822,898,140,806,957,850,128,579,130,959,73,763,916,467,458,588,76,442,71,991,673,781,852,832,758,81,738,759,79,843,823,971,717,712,790,847,996,259,565,369,670,703,258,164,223,249,150,514,663,104,307,678,409,737,551,403,643,915,6,393,510,197,96,316,681,791,952,921,18,611,713,539,421,928,169,212,200,613,404,182,47,363,44,226,384,500,569,359,528,807,792,227,464,14,420,741,890,615,750,281,373,414,977,453,412,276,178,411,144,968,323,314,867,181,504,187,135,955,875,683,367,609,796,58,151,425,719,657,813,656,8,859,153,131,330,274,386,87,463,802,122,413,364,204,695,196,894,766,170,220,241,638,623,355,714,972,15,587,709,395,406,485,704,487,773,780,224,468,691,433,879,782,267,830,215,553,91,297,67,272,198,911,252]","arrowright","","true","0","10","183","1000","[""0070_N1000_K0183_NOCLIQUE"",""0019_N1000_K0183_CLIQUE""]"
"","","","","","audio-keyboard-response","73","97689","0.0-58.0-0.0-1.0","","null","audio_feedback/right/coin01.mp3","null","","","","","0","10","183","1000","[""0070_N1000_K0183_NOCLIQUE"",""0019_N1000_K0183_CLIQUE""]"
"","","","","","canvas-keyboard-response","74","99749","0.0-59.0-0.0-0.0","","886","","arrowleft","[33,889,519,635,819,881,169,503,936,266,405,745,511,384,346,12,2,89,90,123,487,720,689,569,624,577,543,380,694,98,976,686,469,627,231,815,141,632,848,149,120,179,696,743,585,373,562,341,521,887,633,375,9,280,929,188,426,238,505,478,461,38,48,283,158,153,235,25,722,192,241,531,24,269,321,901,611,978,395,485,70,482,623,556,721,927,592,760,471,447,335,343,769,463,668,792,259,10,390,420,865,784,920,799,612,77,302,522,820,888,486,39,263,968,427,387,472,293,915,945,882,353,62,961,474,80,638,868,732,958,433,494,4,917,804,843,951,671,973,243,998,971,573,277,563,65,484,297,211,307,800,906,509,737,974,55,58,383,100,49,115,814,874,842,152,450,832,960,275,688,385,162,499,841,151,174,667,249,950,933,878,296,637,437,11,59,455,168,372,925,676,270,922,943,393,165,736,417,728,440,636,230,984,236,443,362,629,895,711,880,480,71,403,713,626,955,300,572,525,719,497,244,199,425,747,124,262,827,662,435,396,73,339,185,276,661,616,533,217,29,310,817,630,6,779,836,979,186,481,288,793,693,45,125,947,496,204,415,470,498,897,965,136,949,445,566,870,703,512,520,966,91,0,654,95,337,422,762,558,247,178,824,856,609,663,791,588,360,44,456,268,643,620,287,999,242,41,394,724,476,182,716,726,457,651,460,746,193,224,548,655,228,464,916,329,289,63,708,410,835,796,184,527,735,52,397,467,867,37,952,340,985,305,257,768,642,718,26,641,117,683,495,398,594,364,921,650,350,866,550,910,370,221,284,854,352,781,534,21,19,826,902,872,715,338,194,411,648,894,838,15,840,918,357,821,551,980,755,535,87,957,776,560,586,862,863,47,265,138,212,129,983,465,813,311,752,845,97,568,17,639,67,991,962,675,834,582,177,448,539,536,458,303,514,552,591,164,852,407,207,72,198,673,723,750,167,430,245,406,593,116,371,163,777,899,977,710,621,432,652,850,492,64,66,315,206,756,367,682,27,846,272,684,954,825,970,278,187,580,342,5,501,790,248,92,506,567,32,189,139,614,763,114,831,86,292,997,714,170,757,234,953,285,564,900,601,926,963,941,453,679,358,996,255,140,428,1,216,31,298,76,222,376,413,96,581,685,647,559,712,780,727,754,739,873,975,691,314,858,701,43,82,233,113,103,227,160,847,325,546,823,104,526,622,783,729,725,513,828,157,332,436,200,690,226,229,625,308,282,940,327,687,36,171,859,557,659,424,597,808,995,972,3,347,161,758,294,416,142,809,904,431,516,794,154,504,304,912,529,126,669,172,22,366,500,251,886,301,14,132,345,935,201,731,85,515,544,418,111,379,51,717,94,122,860,939,751,145,876,857,412,156,374,102,135,220,959,324,316,351,439,261,107,402,46,404,864,602,377,833,365,903,964,333,607,788,657,279,18,459,610,299,733,330,127,386,121,34,571,981,764,869,176,507,256,180,191,239,628,68,619,254,218,875,197,956,664,653,986,844,942,267,896,8,81,934,740,599,741,401,574,399,797,855,879,382,786,7,709,508,898,993,937,589,137,705,109,286,782,771,264,271,155,75,753,798,56,35,203,532,583,408,680,391,215,890,491,540,291,805,775,13,309,363,810,605,578,313,84,829,112,223,320,281,388,884,595,108,54,608,381,74,166,323,812,146,946,617,183,570,590,677,772,801,787,885,982,545,150,30,190,210,119,252,205,414,660,438,253,697,924,419,159,488,938,994,932,699,615,528,816,468,128,598,322,454,78,101,479,818,69,914,133,144,992,549,318,770,61,730,905,837,658,911,273,130,596,40,738,444,802,53,707,803,576,57,692,148,530,20,649,23,274,429,260,246,644,674,830,861,785,930,749,742,369,510,524,584,646,789,987,575,334,759,466,537,28,232,907,744,883,400,656,392,565,618,579,88,877,473,42,219,328,665,105,143,196,240,839,988,670,923,666,134,306,969,547,312,349,361,423,806,822,606,778,225,695,295,421,208,368,774,378,202,989,213,147,344,553,258,489,765,441,477,237,336,409,702,475,319,493,967,634,706,173,250,853,348,449,761,908,587,79,640,851,434,766,502,795,523,354,631,462,554,331,561,931,672,93,131,60,83,355,538,604,118,214,446,871,541,110,734,542,209,175,442,990,613,317,807,892,681,16,290,928,909,811,678,106,773,50,490,555,451,359,600,389,704,645,181,195,99,849,944,483,919,452,603,698,913,891,356,700,326,767,517,748,518,948,893]","arrowleft","","true","0","11","183","1000","[""0028_N1000_K0183_CLIQUE"",""0072_N1000_K0183_NOCLIQUE""]"
"","","","","","audio-keyboard-response","75","100950","0.0-59.0-0.0-1.0","","null","audio_feedback/right/coin01.mp3","null","","","","","0","11","183","1000","[""0028_N1000_K0183_CLIQUE"",""0072_N1000_K0183_NOCLIQUE""]"
"","","","","","canvas-keyboard-response","76","104154","0.0-60.0-0.0-0.0","","2026",""," ","[307,704,740,616,271,897,374,832,986,972,446,760,19,497,608,711,128,236,451,433,303,942,443,901,907,479,577,872,804,833,56,372,456,155,849,68,876,296,28,745,337,815,389,996,912,617,712,545,406,239,30,369,977,299,429,214,874,365,277,96,74,0,648,780,526,882,848,461,275,427,674,262,178,895,796,685,891,91,609,862,363,266,85,579,984,941,92,40,729,855,119,655,1,998,627,329,795,651,463,816,77,880,268,684,133,203,66,105,709,787,72,42,160,681,396,188,854,110,311,95,781,336,97,71,580,731,231,809,397,997,692,995,219,652,905,84,198,607,253,755,531,459,851,620,21,217,57,762,741,618,553,47,353,928,606,594,574,743,556,671,767,970,727,714,814,210,38,371,982,407,181,801,450,170,514,933,507,661,235,641,699,186,115,417,358,566,489,238,414,180,515,864,906,549,382,827,510,398,919,434,301,686,185,930,320,706,751,721,935,525,587,375,35,611,698,191,822,790,392,963,123,662,2,25,865,640,260,52,408,245,550,533,226,736,215,49,107,285,390,335,447,480,934,677,45,201,878,511,802,264,664,292,625,775,690,829,554,705,739,87,578,229,826,118,803,293,102,850,462,564,410,452,726,732,31,469,347,147,940,653,654,81,488,958,902,184,12,468,535,601,385,722,697,505,195,315,326,402,227,583,331,845,140,964,314,61,676,313,771,208,251,980,430,232,158,400,491,449,954,288,83,753,124,856,192,216,837,257,738,377,572,624,295,204,162,561,979,695,152,763,799,324,334,718,576,870,519,438,575,871,33,48,477,598,134,509,419,341,163,246,966,224,552,976,528,6,896,838,917,508,719,146,332,945,798,857,281,164,27,596,521,548,166,196,143,522,567,255,921,282,401,276,831,534,960,14,702,319,806,886,867,973,23,551,122,557,501,338,136,825,137,869,959,777,174,88,93,145,817,642,200,252,866,543,175,60,675,991,325,890,811,130,939,820,437,725,431,344,492,199,487,494,883,559,635,420,490,650,8,859,284,360,969,478,141,701,404,435,999,395,63,213,884,94,286,22,11,715,547,983,499,889,518,312,386,183,440,728,953,696,55,520,190,333,569,529,80,932,26,581,805,144,189,828,913,349,602,756,810,455,218,693,861,202,53,364,318,308,563,79,742,993,752,149,929,367,391,403,632,646,383,474,899,819,622,54,678,394,615,263,270,194,129,357,916,734,135,228,747,356,100,978,70,875,343,64,713,911,647,925,842,7,373,630,613,10,893,310,345,759,379,234,18,758,381,527,955,560,768,230,76,504,700,458,658,754,562,691,591,786,944,17,24,649,665,354,73,493,399,330,582,5,465,352,317,823,300,570,495,237,117,138,943,309,39,717,513,182,302,359,967,830,541,280,261,900,37,432,250,730,291,274,723,927,716,131,847,50,283,914,89,784,86,16,772,384,626,931,975,222,888,101,517,644,405,910,366,682,707,98,20,355,179,294,82,663,629,148,555,476,776,703,818,985,328,689,496,992,536,656,994,610,212,659,852,843,571,223,439,254,687,339,951,242,877,65,720,989,887,643,346,244,974,981,785,666,841,413,789,211,961,111,472,151,638,157,422,444,937,894,860,278,387,36,774,321,540,442,766,710,75,362,892,62,154,858,486,757,947,645,538,500,667,879,512,853,109,597,467,946,368,614,599,683,233,988,106,172,898,243,165,132,3,221,304,287,765,506,962,453,67,167,808,924,672,938,708,957,637,788,584,909,69,670,748,176,441,923,322,922,241,737,586,305,464,423,926,612,800,724,873,956,821,950,746,750,193,482,868,936,454,126,425,361,376,90,735,475,209,971,298,546,4,471,470,794,824,350,15,169,669,621,773,915,120,197,990,503,418,793,903,13,306,595,112,78,247,426,812,532,524,436,673,844,694,600,749,783,679,558,498,44,605,908,657,327,733,782,279,952,660,636,457,59,460,114,104,415,769,127,604,58,668,483,590,473,43,920,342,948,156,99,29,987,206,484,41,764,121,639,173,585,207,269,542,9,502,248,424,770,348,249,835,530,633,46,619,142,150,885,272,466,378,393,623,839,416,744,171,863,807,411,485,836,573,153,428,316,523,409,267,588,797,108,813,125,258,205,297,761,256,116,628,688,412,634,168,834,846,225,448,159,603,949,792,340,32,631,481,265,539,918,778,968,177,161,592,240,290,965,516,220,565,568,370,51,388,103,589,544,34,323,537,139,259,680,113,380,593,421,445,904,779,791,187,273,289,351,881,840]","arrowright","","","0","12","167","1000","[""0052_N1000_K0167_NOCLIQUE"",""0086_N1000_K0167_CLIQUE""]"
"","","","","","audio-keyboard-response","77","105451","0.0-60.0-0.0-1.0","","null","audio_feedback/shuffles/shuffle01.mp3","null","","","","","0","12","167","1000","[""0052_N1000_K0167_NOCLIQUE"",""0086_N1000_K0167_CLIQUE""]"
"","","","","","canvas-keyboard-response","78","107428","0.0-60.1-0.1-0.1","","771","","arrowright","[942,940,65,565,631,561,532,421,744,790,212,784,621,876,663,913,19,764,308,425,75,301,925,147,776,998,383,299,922,381,624,226,898,475,962,407,789,823,515,564,545,392,20,880,115,223,43,896,104,249,52,248,285,737,200,916,192,214,132,739,958,90,920,185,614,574,384,35,577,368,875,382,51,396,447,291,50,155,167,360,516,367,976,856,519,338,209,149,965,572,463,449,57,274,629,453,917,261,317,280,130,908,158,508,437,39,190,485,569,886,313,854,583,94,584,458,344,331,350,222,847,31,241,448,709,727,800,482,349,231,266,345,712,176,980,810,529,588,720,220,874,837,174,394,673,883,151,710,502,660,362,625,933,374,941,953,526,820,633,934,330,887,931,478,370,973,303,106,996,994,260,974,735,108,592,840,802,457,684,882,870,791,696,861,688,599,30,354,785,172,498,282,869,169,284,503,885,142,348,451,13,900,763,472,535,989,83,332,926,915,698,278,89,692,578,499,162,391,38,799,125,867,651,811,851,324,604,878,390,582,815,501,60,356,402,201,546,527,358,452,288,69,957,325,612,217,593,992,771,836,347,459,888,969,496,649,521,287,191,53,328,895,657,689,378,760,306,22,538,102,141,747,622,549,518,674,494,127,432,32,156,29,481,949,575,265,170,863,74,133,719,18,806,393,748,152,580,403,263,146,539,587,55,571,672,262,937,978,951,251,228,627,738,733,671,148,780,877,693,405,520,717,165,777,471,685,618,62,410,864,773,470,25,12,355,399,352,110,846,227,189,544,179,872,173,3,369,899,947,361,645,977,225,997,84,801,860,661,642,388,757,787,533,139,428,219,782,752,64,803,460,907,445,827,682,268,41,429,563,48,638,716,982,323,983,906,954,17,617,670,138,586,936,326,797,557,37,902,628,40,736,745,73,699,188,77,753,264,24,731,794,436,21,168,372,203,750,704,143,550,337,825,333,419,769,293,80,547,153,433,258,955,257,468,33,884,555,556,868,397,71,979,523,715,440,995,254,591,87,415,805,366,792,10,986,159,541,732,596,702,386,497,987,484,320,570,310,187,681,858,903,256,242,430,250,98,412,889,585,0,128,487,844,101,54,175,335,414,677,302,144,975,687,686,871,404,406,643,807,865,215,956,970,204,443,514,924,434,590,346,680,808,373,724,120,199,45,678,424,818,238,490,873,616,103,999,86,749,466,759,635,984,505,761,371,8,492,857,945,454,281,690,92,662,652,530,729,420,224,385,540,2,123,245,819,181,606,950,756,259,766,890,770,95,713,850,726,114,793,554,634,816,411,905,904,286,500,336,237,509,589,341,504,828,774,772,845,476,641,82,853,166,534,14,552,517,129,297,178,270,63,832,866,798,943,467,581,100,669,213,171,559,728,842,838,919,435,626,695,294,456,603,568,610,431,796,298,611,157,300,97,959,232,821,307,829,112,81,935,198,968,723,197,327,841,91,767,548,221,648,667,140,135,375,991,560,464,462,923,493,182,506,1,26,765,455,422,843,315,441,963,401,679,630,480,413,721,15,640,964,855,11,636,96,946,676,746,932,276,655,839,66,967,960,601,365,944,117,236,202,892,321,921,658,439,683,598,319,762,511,930,705,862,450,113,229,632,195,988,553,985,814,342,952,573,56,289,971,613,473,160,711,351,304,318,233,283,566,7,911,786,339,78,309,359,314,893,469,93,427,76,479,380,664,528,524,68,543,483,650,537,512,416,600,269,426,61,477,6,163,656,194,292,706,126,343,161,849,247,700,376,9,605,993,486,881,981,826,211,542,666,668,243,507,608,239,754,602,558,279,513,939,741,928,5,85,353,918,389,929,722,398,909,296,461,107,387,812,639,36,136,290,730,525,859,948,961,795,647,718,891,694,659,646,240,442,708,707,775,607,184,16,910,267,576,824,216,788,465,522,781,779,252,755,901,768,122,831,272,59,894,912,408,234,340,4,734,444,758,196,835,230,124,536,488,316,105,275,897,134,137,623,848,277,116,208,44,653,990,714,675,817,79,193,822,34,311,271,531,246,409,697,691,804,47,180,357,654,665,312,28,150,235,813,273,809,58,154,46,594,118,742,620,619,121,644,206,364,510,418,834,395,253,879,597,778,609,966,23,67,363,119,295,489,255,400,703,27,972,495,725,145,830,938,474,131,446,567,701,438,833,205,186,551,88,852,218,210,49,164,99,72,637,42,783,329,417,743,423,305,207,183,914,177,244,615,70,491,379,927,334,377,322,109,595,740,751,579,562,111]","arrowright","","true","0","12","167","1000","[""0052_N1000_K0167_NOCLIQUE"",""0086_N1000_K0167_CLIQUE""]"
"","","","","","audio-keyboard-response","79","108629","0.0-60.1-0.1-1.1","","null","audio_feedback/right/coin01.mp3","null","","","","","0","12","167","1000","[""0052_N1000_K0167_NOCLIQUE"",""0086_N1000_K0167_CLIQUE""]"
"","","","","","canvas-keyboard-response","80","110744","0.0-61.0-0.0-0.0","","954",""," ","[346,574,468,804,933,332,959,165,368,294,832,184,397,594,714,173,840,545,3,703,405,333,508,255,439,962,264,84,688,674,67,206,195,317,632,578,668,384,114,986,171,505,10,252,591,937,602,337,501,587,551,590,733,631,589,718,50,720,662,629,436,548,579,188,623,982,476,693,939,952,116,161,112,451,636,736,719,859,450,918,717,747,520,823,879,649,723,111,400,22,68,948,554,958,228,260,282,614,297,696,396,224,922,70,552,850,755,936,818,911,209,663,634,324,452,157,633,944,82,320,134,961,971,963,502,425,90,692,690,36,133,423,588,794,934,782,734,399,821,140,366,698,393,328,237,610,376,358,339,586,388,885,766,880,498,85,385,817,983,126,364,930,156,236,5,323,56,331,957,422,834,819,624,658,89,379,998,765,820,484,357,775,370,890,789,900,229,418,837,938,752,965,869,139,673,974,977,643,816,239,238,34,35,660,248,103,835,798,790,159,186,311,567,955,0,130,826,115,843,285,406,38,682,29,622,704,556,274,472,981,18,61,305,910,522,490,543,122,672,507,419,8,784,531,223,137,640,686,191,648,464,764,513,796,387,28,870,921,842,444,626,471,52,256,807,409,838,509,16,11,893,148,211,424,98,956,585,204,536,286,77,566,667,638,216,48,177,827,280,666,946,102,970,31,697,813,91,854,547,312,787,107,441,447,512,44,168,873,310,651,208,94,76,247,194,46,572,861,553,991,984,217,684,113,661,321,814,825,802,359,365,226,607,855,619,647,583,828,477,289,916,199,680,891,564,300,192,942,273,459,162,407,540,844,210,189,496,849,261,726,429,829,665,367,101,475,78,442,383,378,749,287,41,307,74,808,128,824,887,309,100,283,23,313,304,458,220,437,898,744,791,413,181,178,360,7,175,270,581,771,17,779,600,482,617,176,550,612,856,988,338,369,613,234,906,867,483,281,499,185,361,325,980,207,580,166,131,881,904,847,201,526,770,158,49,809,669,374,535,901,604,434,51,87,163,596,340,772,728,19,53,527,474,150,544,731,761,120,32,154,123,913,598,295,664,351,27,874,625,30,679,478,330,343,322,272,6,947,326,743,876,833,928,780,57,652,497,404,951,888,831,812,515,329,864,348,143,896,836,603,889,993,466,465,420,2,235,381,537,457,561,511,774,271,349,754,246,732,212,655,985,190,708,485,615,327,727,702,222,872,347,104,135,454,592,644,899,616,380,40,335,417,709,9,293,897,773,830,740,609,259,262,801,142,169,461,945,147,435,943,243,514,428,950,811,299,202,751,205,183,995,141,769,992,860,760,848,886,336,573,401,153,196,88,411,314,121,539,372,504,681,745,233,654,136,231,392,953,172,851,155,530,926,125,857,650,973,257,355,546,711,919,43,415,291,990,528,268,976,560,296,593,193,230,846,611,486,659,39,542,510,908,394,795,999,215,250,987,462,71,559,266,453,26,353,180,792,164,245,382,568,1,448,138,601,170,473,799,13,806,763,95,344,868,845,398,375,975,803,931,524,852,197,767,318,576,403,730,151,805,105,127,577,227,694,759,785,14,865,628,996,737,426,203,301,389,371,174,350,218,167,108,60,456,994,641,488,377,685,65,777,968,871,909,905,146,597,584,997,500,221,877,69,319,386,541,480,106,241,249,656,724,345,503,160,438,595,354,915,519,83,92,45,59,412,96,73,912,276,700,571,493,562,523,356,822,269,37,390,815,431,882,460,894,302,455,858,446,642,637,479,491,316,575,903,683,875,517,86,495,735,213,949,251,883,521,941,129,292,47,954,917,746,569,433,722,132,182,635,449,989,630,757,606,440,884,373,258,978,712,797,715,278,341,408,618,670,925,81,463,24,563,972,240,427,705,557,657,839,935,687,214,783,907,678,15,110,63,443,967,469,416,362,97,534,352,788,793,532,516,265,179,93,627,467,149,533,853,620,691,277,725,58,762,750,599,979,315,402,741,555,288,645,862,710,895,62,902,753,518,308,742,646,729,800,810,64,695,303,538,54,776,279,242,608,969,525,689,671,267,960,124,549,263,920,334,395,768,677,25,940,298,570,253,699,707,275,200,494,558,20,72,929,739,878,232,470,716,79,187,966,391,738,410,487,55,506,80,284,21,306,430,225,841,42,66,75,492,342,781,605,290,863,923,244,198,432,675,489,119,117,363,109,639,565,676,145,964,924,932,653,481,4,445,914,582,152,421,758,778,706,254,144,892,12,529,866,33,756,786,713,219,99,721,927,748,701,621,414,118]","arrowright","","","0","13","167","1000","[""0043_N1000_K0167_NOCLIQUE"",""0011_N1000_K0167_CLIQUE""]"
"","","","","","audio-keyboard-response","81","112010","0.0-61.0-0.0-1.0","","null","audio_feedback/shuffles/shuffle01.mp3","null","","","","","0","13","167","1000","[""0043_N1000_K0167_NOCLIQUE"",""0011_N1000_K0167_CLIQUE""]"
"","","","","","canvas-keyboard-response","82","114320","0.0-61.1-0.1-0.1","","1112","","arrowright","[59,772,33,975,704,7,214,430,759,559,802,762,784,196,809,355,935,836,694,972,301,649,603,658,62,848,883,429,955,494,945,859,765,289,229,127,95,363,225,538,288,528,693,412,853,997,750,454,272,863,931,632,386,198,902,264,473,81,161,313,951,190,433,42,115,530,857,253,212,89,118,680,132,769,865,949,57,850,424,381,982,846,329,285,403,540,339,148,105,886,699,860,904,278,866,578,740,388,444,862,334,551,507,56,111,960,204,899,221,731,932,894,396,364,929,922,981,847,291,757,674,979,402,909,671,110,849,621,463,215,710,45,956,619,417,599,213,804,475,315,558,823,231,732,349,144,109,394,68,140,409,829,814,298,830,933,702,910,650,124,623,572,428,38,813,567,493,913,496,510,218,157,921,646,799,724,351,67,869,487,318,390,125,188,906,287,80,40,192,608,761,290,354,147,413,408,135,82,918,186,100,545,22,794,437,257,777,767,205,102,842,254,78,391,29,92,781,26,900,609,901,681,238,326,445,743,844,395,283,400,14,201,737,686,887,708,333,308,189,139,788,438,595,230,203,419,574,631,879,415,261,701,652,529,195,612,153,5,342,150,749,840,980,12,481,668,420,260,130,352,620,861,524,211,970,580,393,648,996,821,178,995,169,128,256,713,84,461,471,232,947,66,321,274,728,239,881,615,514,310,18,346,790,20,570,46,944,222,440,35,47,63,543,54,453,806,48,457,485,598,891,142,607,184,194,873,265,113,707,328,460,43,441,733,459,977,851,32,145,895,838,479,88,1,751,410,426,269,106,348,787,367,292,741,64,756,835,407,889,243,897,279,825,763,490,341,526,868,466,695,21,523,875,267,104,775,98,818,683,548,659,65,167,604,383,193,332,434,9,712,785,734,389,143,533,382,138,476,729,930,171,719,77,730,108,629,983,579,404,322,640,480,16,397,245,24,446,568,768,379,968,594,79,638,630,958,93,520,917,327,227,925,467,718,661,939,571,273,107,247,962,246,120,782,805,564,241,974,771,964,378,948,360,738,672,416,517,270,915,992,820,489,61,331,448,134,405,182,815,635,464,911,714,797,634,151,216,666,706,458,711,94,927,154,988,936,828,41,991,669,688,450,119,892,770,843,117,625,698,682,748,316,344,174,521,250,294,622,474,882,541,585,91,497,146,112,470,745,152,965,468,369,19,197,903,591,74,858,495,180,376,709,647,0,237,361,36,789,504,280,539,343,553,907,810,824,746,421,586,552,727,924,210,370,690,801,101,302,377,85,155,546,807,867,885,766,506,34,320,423,137,633,856,72,295,717,13,655,826,739,337,168,871,387,664,207,795,660,742,116,575,353,275,456,651,228,978,224,170,452,642,855,626,561,165,472,969,831,163,281,834,284,878,692,582,244,971,556,542,547,644,114,23,380,385,462,30,888,304,511,723,987,330,121,286,303,179,442,679,248,133,531,919,515,744,616,963,103,455,675,187,624,957,181,602,555,25,989,249,90,752,605,833,654,509,366,776,685,791,15,827,432,703,880,156,53,60,961,779,665,158,185,297,425,905,525,934,976,953,687,670,191,610,923,877,893,345,854,31,537,141,492,223,554,266,340,263,993,159,735,282,306,418,522,300,335,97,8,235,399,477,736,242,643,916,262,3,705,941,317,606,557,164,160,324,566,44,966,372,96,99,684,516,808,501,401,864,359,10,73,689,656,384,176,822,482,439,431,796,325,601,725,422,876,362,721,299,50,667,959,786,627,162,177,943,49,365,338,217,874,583,219,535,336,478,371,845,803,234,778,928,613,305,414,584,573,747,356,590,569,491,122,469,645,518,819,11,811,251,373,375,449,357,368,998,51,209,37,581,465,268,87,780,276,427,986,172,914,258,307,587,71,628,233,942,753,593,75,503,926,55,536,512,754,136,841,309,166,716,592,832,588,726,255,52,800,173,722,483,296,123,639,614,293,950,773,576,563,577,314,447,798,618,994,696,319,890,532,6,967,697,502,637,774,236,277,131,678,513,999,760,852,271,527,954,544,374,312,149,350,17,27,259,2,816,126,398,498,940,208,984,872,202,908,839,985,28,508,565,220,69,662,653,720,597,183,451,358,534,436,392,896,812,596,226,920,411,611,837,973,793,83,657,691,549,783,938,70,636,500,175,76,323,884,870,617,206,676,519,673,4,129,764,499,677,86,311,663,990,484,443,486,505,912,755,406,641,488,347,952,817,792,700,946,758,560,562,715,600,252,200,550,898,199,937,240,58,39,435,589]","arrowright","","true","0","13","167","1000","[""0043_N1000_K0167_NOCLIQUE"",""0011_N1000_K0167_CLIQUE""]"
"","","","","","audio-keyboard-response","83","115510","0.0-61.1-0.1-1.1","","null","audio_feedback/right/coin01.mp3","null","","","","","0","13","167","1000","[""0043_N1000_K0167_NOCLIQUE"",""0011_N1000_K0167_CLIQUE""]"
"","","","","","canvas-keyboard-response","84","117454","0.0-62.0-0.0-0.0","","834",""," ","[766,196,428,175,335,365,709,183,161,667,700,12,781,377,957,384,39,605,804,903,411,728,565,690,811,894,572,729,922,191,907,204,79,578,267,851,597,911,95,557,501,356,142,802,993,699,743,620,343,290,137,1,963,808,554,45,951,698,75,787,187,449,383,48,14,203,207,498,839,16,516,771,407,59,172,659,635,228,350,280,674,34,80,419,704,300,505,91,372,186,362,424,830,208,180,173,403,910,581,702,533,823,706,144,945,274,889,357,466,114,279,958,54,643,55,192,770,849,746,640,224,637,245,983,171,906,747,978,281,868,985,689,645,61,470,189,797,973,696,310,586,73,739,555,72,37,314,476,917,817,589,695,921,736,763,162,614,647,332,11,185,319,389,935,225,608,641,795,358,110,574,875,869,469,49,694,282,307,899,322,260,397,284,445,712,328,294,779,661,969,156,393,56,514,576,844,626,950,813,548,100,854,363,304,687,908,405,41,966,313,646,31,627,843,448,585,68,258,996,865,679,378,380,864,622,948,587,331,454,451,509,564,155,179,147,442,143,912,133,278,241,815,320,598,701,603,931,395,360,818,896,863,703,125,190,251,756,886,591,859,518,434,330,750,840,299,323,579,827,272,551,676,531,6,58,460,580,141,652,977,246,477,340,492,325,819,532,974,774,520,791,710,158,376,621,571,106,942,792,349,23,413,259,988,459,119,168,754,169,472,265,375,51,828,630,991,926,722,653,904,949,898,606,483,76,855,462,181,44,215,321,140,193,418,928,932,70,177,874,252,842,108,370,537,57,291,122,151,959,324,431,740,639,927,157,856,388,234,852,399,468,182,86,121,412,577,352,212,649,523,159,387,25,348,309,464,283,429,692,924,452,780,77,656,94,232,256,764,337,42,738,955,888,47,416,535,992,715,900,916,286,596,806,789,221,956,990,487,250,15,421,404,915,919,78,230,691,275,236,447,21,890,379,120,485,669,374,920,164,790,510,90,831,97,288,997,354,887,624,613,629,342,825,938,688,832,725,534,542,148,495,82,465,5,475,962,244,582,355,726,748,473,618,879,965,884,848,104,136,793,390,788,686,835,249,213,713,302,113,0,737,2,427,92,604,19,858,734,457,128,976,506,798,220,673,636,724,544,559,482,231,463,83,682,312,553,152,402,517,3,529,697,796,53,371,210,436,809,345,153,755,98,84,759,9,394,347,261,391,524,101,998,936,979,717,638,744,883,346,680,628,508,800,631,493,642,684,708,478,184,918,7,730,633,820,503,895,254,305,33,872,590,333,269,707,611,488,497,178,982,438,882,567,13,782,944,610,651,455,36,296,878,803,353,714,593,609,273,422,664,67,216,425,541,521,665,52,336,568,437,471,226,632,484,599,295,929,600,262,923,504,549,871,253,197,414,838,367,112,381,441,546,174,126,525,446,29,829,760,861,768,27,150,666,368,943,166,105,93,32,458,69,776,160,749,65,318,968,359,732,130,432,111,733,46,560,195,361,103,211,987,124,721,199,481,558,490,588,239,297,847,897,616,933,364,543,538,752,467,194,783,339,975,866,22,165,913,334,270,499,960,970,677,735,981,198,513,623,877,35,954,961,727,575,406,398,315,799,154,139,303,837,268,772,821,657,131,573,369,685,527,62,925,28,127,850,602,408,668,569,601,491,99,373,619,293,145,292,833,423,716,277,494,540,980,805,658,807,547,545,836,655,71,901,257,233,867,89,87,784,386,562,711,298,660,778,118,519,453,30,382,953,410,138,20,366,316,149,4,972,109,480,217,170,218,765,439,536,522,511,486,255,81,135,496,675,592,351,801,893,786,812,287,672,66,107,650,777,758,26,914,762,129,117,248,634,550,385,570,810,583,612,306,433,670,219,43,705,731,841,341,566,654,905,862,247,450,10,214,719,512,873,946,8,826,205,507,625,556,502,720,409,229,132,417,595,989,648,134,396,995,102,718,794,857,846,967,773,167,222,941,326,443,753,515,163,238,834,644,430,123,242,401,934,671,999,552,880,845,693,329,311,426,853,742,38,870,984,240,939,235,200,947,444,594,338,88,435,60,202,146,662,824,271,615,344,757,474,489,775,17,876,301,526,683,264,663,761,528,456,289,227,201,539,285,940,96,276,909,617,816,561,860,769,188,317,751,237,563,986,64,885,584,500,767,85,266,209,415,50,479,902,607,223,420,814,74,930,400,206,785,263,892,116,723,994,937,308,745,822,881,24,115,952,243,40,678,327,18,392,971,741,176,681,891,440,530,964,461,63]","arrowright","","","0","14","150","1000","[""0003_N1000_K0150_NOCLIQUE"",""0094_N1000_K0150_CLIQUE""]"
"","","","","","audio-keyboard-response","85","118729","0.0-62.0-0.0-1.0","","null","audio_feedback/shuffles/shuffle01.mp3","null","","","","","0","14","150","1000","[""0003_N1000_K0150_NOCLIQUE"",""0094_N1000_K0150_CLIQUE""]"
"","","","","","canvas-keyboard-response","86","121048","0.0-62.1-0.1-0.1","","1170","","arrowleft","[137,212,343,94,208,771,923,77,616,325,610,314,193,367,472,269,974,488,502,428,961,327,486,911,436,387,296,180,413,907,543,151,878,60,992,652,447,406,23,284,540,384,227,290,74,690,791,810,913,854,79,904,672,194,378,503,322,59,425,929,446,587,228,244,192,130,750,558,966,550,25,995,362,859,920,808,485,511,301,847,143,50,577,516,490,222,873,851,34,727,505,481,969,492,111,738,121,747,792,368,471,388,611,790,293,946,839,18,609,279,292,178,683,542,176,581,58,826,663,593,65,422,894,71,26,97,85,463,124,925,191,831,507,530,557,964,190,391,3,754,423,474,708,895,298,260,332,811,114,686,506,209,440,257,147,548,905,532,963,676,448,635,575,231,200,321,788,986,201,405,352,99,459,252,762,527,836,104,329,572,885,975,495,68,106,197,824,73,582,835,514,807,108,648,954,777,247,579,918,600,573,84,688,454,30,491,988,774,182,938,726,353,366,470,386,967,344,442,177,815,650,308,323,2,287,744,884,778,264,786,510,534,556,403,796,868,47,136,785,452,416,607,98,881,181,466,642,444,564,475,912,892,351,421,295,4,916,202,799,414,636,623,163,245,133,820,827,626,9,404,199,211,519,438,631,687,429,872,87,674,76,758,250,240,355,207,42,901,679,993,741,862,263,723,217,370,784,83,46,461,620,462,660,578,675,800,131,372,583,803,818,149,453,748,541,814,340,363,682,845,138,243,255,699,653,702,601,312,891,305,31,566,549,146,57,277,234,524,809,562,565,236,614,812,324,424,376,139,365,769,615,603,455,96,103,256,142,271,972,398,760,399,450,268,302,870,843,863,157,677,317,957,518,150,102,866,539,346,806,172,204,434,875,239,418,886,373,477,246,880,584,717,591,341,915,179,435,850,984,315,20,441,685,515,940,990,669,860,187,553,816,981,383,585,517,153,535,536,371,437,721,545,251,90,657,51,15,300,380,390,664,569,356,350,704,598,395,396,374,294,647,122,902,621,933,132,148,968,105,991,125,152,965,563,161,499,469,681,319,950,348,753,746,311,282,89,215,126,230,555,668,765,12,29,95,185,643,732,724,369,484,113,666,266,857,977,225,661,37,331,14,633,728,342,473,520,283,628,570,921,684,638,168,116,410,415,552,205,830,737,337,91,307,61,560,464,936,478,772,117,766,86,755,734,169,960,867,354,908,939,828,789,525,17,595,740,184,935,795,896,309,188,275,759,375,709,16,411,533,622,989,559,999,443,316,705,834,39,761,700,120,360,735,13,594,973,310,6,632,109,958,55,521,63,53,397,195,482,107,141,840,118,166,458,588,123,112,468,281,213,49,751,833,22,379,667,465,432,408,665,400,306,347,783,624,749,602,841,897,270,528,697,36,449,433,67,241,476,439,856,537,144,364,883,513,605,43,381,719,832,813,670,978,722,54,888,278,402,714,716,544,189,401,838,655,11,865,608,69,586,538,979,947,504,140,801,817,119,662,128,385,768,186,393,695,592,339,361,956,943,267,206,739,174,258,219,409,52,613,24,457,253,75,265,982,877,82,879,235,229,333,745,392,496,701,526,776,703,92,249,274,922,509,261,221,328,40,500,389,417,890,233,78,787,649,773,480,272,220,782,56,156,493,135,288,889,326,698,531,334,983,427,951,852,976,692,930,680,842,917,547,948,501,932,420,934,170,0,62,460,529,893,232,431,798,715,238,625,237,656,574,804,134,571,303,320,646,483,497,871,678,959,101,644,952,794,756,637,931,944,924,713,154,797,711,45,299,242,599,736,590,618,546,639,262,640,996,829,997,285,7,731,706,844,494,259,909,338,451,730,651,522,276,224,487,941,634,489,198,289,254,93,330,214,223,576,858,914,100,127,848,183,430,898,1,630,752,70,419,927,445,508,900,937,336,81,568,145,742,864,823,159,304,173,280,987,589,412,357,216,980,21,627,617,874,359,876,693,712,48,407,19,567,855,561,291,953,780,945,597,426,345,757,155,671,793,523,64,38,837,498,218,35,707,887,72,28,822,606,80,658,696,910,129,825,673,819,164,382,919,273,725,394,949,654,203,313,733,318,160,767,580,158,479,629,994,5,358,167,335,196,869,554,32,903,512,805,165,955,764,210,297,596,962,467,770,377,10,906,763,659,985,162,802,821,551,604,781,66,998,720,691,612,926,928,88,41,729,8,171,33,882,641,110,970,689,619,115,779,861,942,694,971,853,286,645,775,846,44,27,710,456,849,718,226,349,743,175,899,248]","arrowright","","false","0","14","150","1000","[""0003_N1000_K0150_NOCLIQUE"",""0094_N1000_K0150_CLIQUE""]"
"","","","","","audio-keyboard-response","87","122248","0.0-62.1-0.1-1.1","","null","audio_feedback/wrong/error01.mp3","null","","","","","0","14","150","1000","[""0003_N1000_K0150_NOCLIQUE"",""0094_N1000_K0150_CLIQUE""]"
"","","","","","canvas-keyboard-response","88","124243","0.0-63.0-0.0-0.0","","797",""," ","[505,28,117,845,14,202,839,526,736,644,357,430,477,906,637,859,279,629,514,820,34,268,657,675,552,21,487,151,13,332,812,242,258,269,416,522,838,934,742,486,502,977,290,674,38,153,88,618,222,626,917,884,535,226,174,251,410,875,990,372,308,649,224,912,387,140,956,805,670,390,724,588,606,190,294,889,781,90,564,560,706,658,596,86,893,171,547,663,283,769,453,341,516,187,384,976,71,215,375,362,315,154,528,561,798,679,886,228,518,427,317,105,348,970,997,667,766,869,311,981,219,785,444,938,175,263,346,582,573,778,141,933,808,931,158,145,730,855,99,227,418,155,278,971,162,204,733,373,322,296,136,53,301,130,632,961,393,910,16,172,48,915,694,386,239,467,351,954,323,163,861,835,122,94,496,899,27,984,975,56,642,687,581,252,511,900,908,783,498,631,84,607,639,302,796,39,847,685,569,941,579,216,196,553,645,515,50,652,982,863,622,198,793,58,602,673,919,530,161,73,144,118,478,293,682,3,756,943,124,918,844,503,421,732,0,436,164,659,320,678,480,377,396,898,743,920,871,734,660,91,703,128,463,701,24,96,205,264,399,973,746,688,329,697,385,178,877,550,364,312,371,305,5,1,926,288,466,651,81,767,400,199,18,539,138,284,980,243,768,206,337,411,451,324,865,604,650,326,601,255,512,452,577,280,147,638,402,310,345,878,711,699,352,316,888,412,627,952,537,409,676,741,614,177,949,238,4,165,494,254,327,940,51,818,825,225,455,275,692,20,605,424,249,40,862,195,167,203,321,753,152,640,159,901,852,592,356,213,42,475,437,786,78,489,146,271,597,465,507,744,590,549,583,49,361,807,885,780,274,856,319,134,565,738,235,684,307,442,342,192,381,432,74,620,598,690,29,67,188,985,112,191,809,979,822,229,782,647,716,787,472,10,655,184,47,776,391,568,110,126,534,253,62,30,303,593,233,236,246,998,127,80,832,864,347,527,698,608,827,814,921,664,800,905,328,795,474,758,992,958,212,695,833,517,722,273,924,557,922,834,946,999,247,108,876,369,143,103,470,719,948,510,993,309,282,816,270,760,64,762,220,790,104,994,544,407,382,538,705,794,157,613,803,492,25,367,969,556,929,133,256,331,230,513,19,368,957,621,46,656,504,473,160,33,580,965,123,116,524,718,481,740,927,208,683,617,584,669,853,289,469,747,374,398,714,680,525,810,988,671,169,350,336,702,892,541,628,32,179,484,438,867,285,788,93,841,306,454,574,120,68,939,562,799,55,41,266,595,234,777,464,643,210,857,792,823,662,570,360,959,712,585,770,947,415,245,868,121,806,57,217,932,354,612,600,725,752,231,406,813,991,36,858,22,79,521,968,189,846,586,295,343,739,353,715,185,459,6,913,854,531,232,426,894,468,37,987,420,571,951,43,267,748,501,276,98,542,259,916,967,672,300,435,85,587,207,101,654,318,211,23,902,509,548,623,378,831,448,634,397,609,709,333,545,458,567,440,314,904,896,681,404,633,944,727,135,735,186,201,897,506,129,960,148,417,115,826,59,731,334,248,759,17,491,591,365,737,408,77,784,873,543,843,677,240,166,31,313,92,824,340,111,533,830,707,7,720,666,65,779,394,551,978,520,461,76,540,765,413,425,355,555,395,106,653,755,801,428,170,422,880,996,764,829,566,641,298,928,359,304,476,689,8,401,754,881,330,358,615,446,439,599,423,45,291,12,2,75,925,52,874,69,379,214,696,508,447,789,482,119,419,850,60,700,137,221,194,870,836,923,281,183,495,11,434,791,882,890,772,173,292,89,493,403,485,63,815,842,376,241,646,287,757,529,895,911,262,414,109,142,180,15,953,610,392,244,389,751,349,182,936,891,616,139,887,113,132,125,26,149,483,963,546,691,83,848,519,433,950,837,726,370,804,339,710,914,456,366,872,44,704,625,935,405,100,572,277,879,193,964,771,750,635,811,575,866,299,272,176,131,156,181,197,686,9,260,559,578,107,209,611,445,972,168,576,986,729,72,380,693,945,490,930,774,966,431,54,594,955,937,70,114,974,983,450,708,883,589,532,723,257,488,335,443,102,661,802,500,775,851,840,97,388,297,728,630,624,479,237,497,286,665,87,61,223,344,773,449,536,636,66,363,749,942,909,95,200,261,989,668,554,462,35,250,819,828,763,797,962,995,383,338,721,150,265,745,761,82,821,429,563,471,903,603,817,441,523,713,648,558,717,860,849,457,460,325,907,499,619,218]","arrowright","","","0","15","150","1000","[""0075_N1000_K0150_NOCLIQUE"",""0029_N1000_K0150_CLIQUE""]"
"","","","","","audio-keyboard-response","89","125509","0.0-63.0-0.0-1.0","","null","audio_feedback/shuffles/shuffle01.mp3","null","","","","","0","15","150","1000","[""0075_N1000_K0150_NOCLIQUE"",""0029_N1000_K0150_CLIQUE""]"
