"success","timeout","failed_images","failed_audio","failed_video","trial_type","trial_index","time_elapsed","internal_node_id","view_history","rt","stimulus","response","nodes_order","correct_response","graphs_couple","accuracy","block_index","presentation_index","clique_size","graph_size","graphs_names"
"true","false","[]","[]","[]","preload","0","341","0.0-0.0","","","","","","","","","","","","",""
"","","","","","pavlovia","1","1745","0.0-1.0","","","","","","","","","","","","",""
"","","","","","instructions","2","41333","0.0-2.0","[{""page_index"":0,""viewing_time"":38517},{""page_index"":1,""viewing_time"":1063}]","39581","","","","","","","","","","",""
"true","false","[]","[]","[]","preload","3","48966","0.0-3.0","","","","","","","","","","","","",""
"","","","","","instructions","4","70581","0.0-4.0","[{""page_index"":0,""viewing_time"":908},{""page_index"":1,""viewing_time"":463},{""page_index"":2,""viewing_time"":1381},{""page_index"":3,""viewing_time"":567},{""page_index"":4,""viewing_time"":312},{""page_index"":5,""viewing_time"":320},{""page_index"":6,""viewing_time"":307},{""page_index"":7,""viewing_time"":249},{""page_index"":8,""viewing_time"":435},{""page_index"":9,""viewing_time"":366},{""page_index"":10,""viewing_time"":315},{""page_index"":11,""viewing_time"":318},{""page_index"":12,""viewing_time"":321},{""page_index"":13,""viewing_time"":297},{""page_index"":14,""viewing_time"":321},{""page_index"":15,""viewing_time"":459},{""page_index"":16,""viewing_time"":306},{""page_index"":17,""viewing_time"":305},{""page_index"":18,""viewing_time"":422},{""page_index"":19,""viewing_time"":363},{""page_index"":20,""viewing_time"":371},{""page_index"":21,""viewing_time"":311},{""page_index"":22,""viewing_time"":303},{""page_index"":23,""viewing_time"":357},{""page_index"":24,""viewing_time"":332},{""page_index"":25,""viewing_time"":317},{""page_index"":26,""viewing_time"":335},{""page_index"":27,""viewing_time"":689},{""page_index"":28,""viewing_time"":639},{""page_index"":29,""viewing_time"":505},{""page_index"":30,""viewing_time"":306},{""page_index"":31,""viewing_time"":387},{""page_index"":32,""viewing_time"":303},{""page_index"":33,""viewing_time"":366},{""page_index"":34,""viewing_time"":299},{""page_index"":35,""viewing_time"":271},{""page_index"":36,""viewing_time"":666},{""page_index"":37,""viewing_time"":375},{""page_index"":38,""viewing_time"":479},{""page_index"":39,""viewing_time"":422},{""page_index"":40,""viewing_time"":407},{""page_index"":41,""viewing_time"":436},{""page_index"":42,""viewing_time"":304},{""page_index"":43,""viewing_time"":356},{""page_index"":44,""viewing_time"":426},{""page_index"":45,""viewing_time"":313},{""page_index"":46,""viewing_time"":448},{""page_index"":47,""viewing_time"":391},{""page_index"":48,""viewing_time"":370},{""page_index"":49,""viewing_time"":602},{""page_index"":50,""viewing_time"":391},{""page_index"":51,""viewing_time"":404}]","21614","","","","","","","","","","",""
"","","","","","instructions","5","71780","0.0-5.0","[{""page_index"":0,""viewing_time"":1198}]","1198","","","","","","","","","","",""
"true","false","[]","[]","[]","preload","6","74840","0.0-6.0","","","","","","","","","","","","",""
"","","","","","image-keyboard-response","7","75921","0.0-7.0","","1075","tutorial/task_familiarization_images/part 1/01_N160_K90_cliqueRight_question1.PNG"," ","","","","","","","","",""
"","","","","","image-keyboard-response","8","76871","0.0-8.0","","946","tutorial/task_familiarization_images/part 1/02_N160_K90_cliqueRight_question2.PNG"," ","","","","","","","","",""
"","","","","","image-keyboard-response","9","78255","0.0-9.0","","1381","tutorial/task_familiarization_images/part 1/03_N160_K90_cliqueRight_question3.PNG","arrowright","","","","","","","","",""
"","","","","","image-keyboard-response","10","78883","0.0-10.0","","623","tutorial/task_familiarization_images/part 1/04_N160_K90_cliqueRight_solution.PNG"," ","","","","","","","","",""
"","","","","","image-keyboard-response","11","79366","0.0-11.0","","481","tutorial/task_familiarization_images/part 1/05_N160_K65_cliqueRight_question1.PNG"," ","","","","","","","","",""
"","","","","","image-keyboard-response","12","80463","0.0-12.0","","1095","tutorial/task_familiarization_images/part 1/06_N160_K65_cliqueRight_question2.PNG"," ","","","","","","","","",""
"","","","","","image-keyboard-response","13","81781","0.0-13.0","","1316","tutorial/task_familiarization_images/part 1/07_N160_K65_cliqueRight_question3.PNG","arrowright","","","","","","","","",""
"","","","","","image-keyboard-response","14","82251","0.0-14.0","","468","tutorial/task_familiarization_images/part 1/08_N160_K65_cliqueRight_solution.PNG"," ","","","","","","","","",""
"","","","","","image-keyboard-response","15","82630","0.0-15.0","","376","tutorial/task_familiarization_images/part 1/09_N160_K50_cliqueLeft_question1.PNG"," ","","","","","","","","",""
"","","","","","image-keyboard-response","16","82979","0.0-16.0","","347","tutorial/task_familiarization_images/part 1/10_N160_K50_cliqueLeft_question2.PNG"," ","","","","","","","","",""
"","","","","","image-keyboard-response","17","83947","0.0-17.0","","966","tutorial/task_familiarization_images/part 1/11_N160_K50_cliqueLeft_question3.PNG","arrowleft","","","","","","","","",""
"","","","","","image-keyboard-response","18","84381","0.0-18.0","","432","tutorial/task_familiarization_images/part 1/12_N160_K50_cliqueLeft_solution.PNG"," ","","","","","","","","",""
"","","","","","image-keyboard-response","19","84756","0.0-19.0","","372","tutorial/task_familiarization_images/part 1/13_N160_K80_cliqueLeft_question1.PNG"," ","","","","","","","","",""
"","","","","","image-keyboard-response","20","85022","0.0-20.0","","264","tutorial/task_familiarization_images/part 1/14_N160_K80_cliqueLeft_question2.PNG"," ","","","","","","","","",""
"","","","","","image-keyboard-response","21","85527","0.0-21.0","","503","tutorial/task_familiarization_images/part 1/15_N160_K80_cliqueLeft_question3.PNG","arrowleft","","","","","","","","",""
"","","","","","image-keyboard-response","22","85962","0.0-22.0","","432","tutorial/task_familiarization_images/part 1/16_N160_K80_cliqueLeft_solution.PNG"," ","","","","","","","","",""
"","","","","","image-keyboard-response","23","86347","0.0-23.0","","383","tutorial/task_familiarization_images/part 1/17_N160_K40_cliqueRight_question1.PNG"," ","","","","","","","","",""
"","","","","","image-keyboard-response","24","86881","0.0-24.0","","531","tutorial/task_familiarization_images/part 1/18_N160_K40_cliqueRight_question2.PNG"," ","","","","","","","","",""
"","","","","","image-keyboard-response","25","87920","0.0-25.0","","1037","tutorial/task_familiarization_images/part 1/19_N160_K40_cliqueRight_question3.PNG","arrowright","","","","","","","","",""
"","","","","","image-keyboard-response","26","88610","0.0-26.0","","678","tutorial/task_familiarization_images/part 1/20_N160_K40_cliqueRight_solution.PNG"," ","","","","","","","","",""
"","","","","","image-keyboard-response","27","88988","0.0-27.0","","355","tutorial/task_familiarization_images/part 1/21_N160_K70_cliqueLeft_question1.PNG"," ","","","","","","","","",""
"","","","","","image-keyboard-response","28","89270","0.0-28.0","","279","tutorial/task_familiarization_images/part 1/22_N160_K70_cliqueLeft_question2.PNG"," ","","","","","","","","",""
"","","","","","image-keyboard-response","29","89820","0.0-29.0","","548","tutorial/task_familiarization_images/part 1/23_N160_K70_cliqueLeft_question3.PNG","arrowleft","","","","","","","","",""
"","","","","","image-keyboard-response","30","90608","0.0-30.0","","786","tutorial/task_familiarization_images/part 1/24_N160_K70_cliqueLeft_solution.PNG"," ","","","","","","","","",""
"true","false","[]","[]","[]","preload","31","93732","0.0-31.0","","","","","","","","","","","","",""
"","","","","","image-keyboard-response","32","100032","0.0-32.0","","6298","tutorial/task_familiarization_images/part 2/01_160_80_cliqueLeft_withFeedback_1.PNG"," ","","","","","","","","",""
"","","","","","image-keyboard-response","33","100530","0.0-33.0","","496","tutorial/task_familiarization_images/part 2/02_160_80_cliqueLeft_withFeedback_1.PNG"," ","","","","","","","","",""
"","","","","","image-keyboard-response","34","100920","0.0-34.0","","387","tutorial/task_familiarization_images/part 2/03_160_80_cliqueLeft_withFeedback_3.PNG","arrowleft","","","","","","","","",""
"","","","","","image-keyboard-response","35","101528","0.0-35.0","","606","tutorial/task_familiarization_images/part 2/04_160_80_cliqueLeft_withFeedback_correct.PNG"," ","","","","","","","","",""
"","","","","","image-keyboard-response","36","102019","0.0-36.0","","488","tutorial/task_familiarization_images/part 2/05_160_55_cliqueRight_withFeedback_1.PNG"," ","","","","","","","","",""
"","","","","","image-keyboard-response","37","102403","0.0-37.0","","382","tutorial/task_familiarization_images/part 2/06_160_55_cliqueRight_withFeedback_2.PNG"," ","","","","","","","","",""
"","","","","","image-keyboard-response","38","103278","0.0-38.0","","869","tutorial/task_familiarization_images/part 2/07_160_55_cliqueRight_withFeedback_3.PNG","arrowright","","","","","","","","",""
"","","","","","image-keyboard-response","39","103766","0.0-39.0","","486","tutorial/task_familiarization_images/part 2/08_160_55_cliqueRight_withFeedback_correct.PNG"," ","","","","","","","","",""
"","","","","","image-keyboard-response","40","104109","0.0-40.0","","341","tutorial/task_familiarization_images/part 2/09_160_70_cliqueLeft_withFeedback_1.PNG"," ","","","","","","","","",""
"","","","","","image-keyboard-response","41","104402","0.0-41.0","","291","tutorial/task_familiarization_images/part 2/10_160_70_cliqueLeft_withFeedback_2.PNG"," ","","","","","","","","",""
"","","","","","image-keyboard-response","42","104909","0.0-42.0","","490","tutorial/task_familiarization_images/part 2/11_160_70_cliqueLeft_withFeedback_3.PNG","arrowleft","","","","","","","","",""
"","","","","","image-keyboard-response","43","105348","0.0-43.0","","436","tutorial/task_familiarization_images/part 2/12_160_70_cliqueLeft_withFeedback_correct.PNG"," ","","","","","","","","",""
"","","","","","survey-html-form","44","114464","0.0-44.0","","9063","","{""gender"":""female"",""age"":""27""}","","","","","","","","",""
"","","","","","instructions","45","115616","0.0-45.0","[{""page_index"":0,""viewing_time"":1148}]","1149","","","","","","","","","","",""
"","","","","","html-keyboard-response","46","116620","0.0-46.0-0.0-0.0","","null","Please wait while the experiment is loading...<br><br> (This could take a few minutes, if you are on a slow connection)","null","","","","","","","","",""
"","","","","","html-keyboard-response","47","117633","0.0-46.0-0.1-0.1","","null","Please wait while the experiment is loading...<br><br> (This could take a few minutes, if you are on a slow connection)","null","","","","","","","","",""
"","","","","","html-keyboard-response","48","118644","0.0-46.0-0.2-0.2","","null","Please wait while the experiment is loading...<br><br> (This could take a few minutes, if you are on a slow connection)","null","","","","","","","","",""
"","","","","","html-keyboard-response","49","119651","0.0-46.0-0.3-0.3","","null","Please wait while the experiment is loading...<br><br> (This could take a few minutes, if you are on a slow connection)","null","","","","","","","","",""
"","","","","","html-keyboard-response","50","120683","0.0-46.0-0.4-0.4","","null","Please wait while the experiment is loading...<br><br> (This could take a few minutes, if you are on a slow connection)","null","","","","","","","","",""
"","","","","","html-keyboard-response","51","121742","0.0-46.0-0.5-0.5","","null","Please wait while the experiment is loading...<br><br> (This could take a few minutes, if you are on a slow connection)","null","","","","","","","","",""
"","","","","","html-keyboard-response","52","122758","0.0-46.0-0.6-0.6","","null","Please wait while the experiment is loading...<br><br> (This could take a few minutes, if you are on a slow connection)","null","","","","","","","","",""
"","","","","","html-keyboard-response","53","123798","0.0-46.0-0.7-0.7","","null","Please wait while the experiment is loading...<br><br> (This could take a few minutes, if you are on a slow connection)","null","","","","","","","","",""
"","","","","","html-keyboard-response","54","124854","0.0-46.0-0.8-0.8","","null","Please wait while the experiment is loading...<br><br> (This could take a few minutes, if you are on a slow connection)","null","","","","","","","","",""
"","","","","","html-keyboard-response","55","125862","0.0-46.0-0.9-0.9","","null","Please wait while the experiment is loading...<br><br> (This could take a few minutes, if you are on a slow connection)","null","","","","","","","","",""
"","","","","","html-keyboard-response","56","126866","0.0-46.0-0.10-0.10","","null","Please wait while the experiment is loading...<br><br> (This could take a few minutes, if you are on a slow connection)","null","","","","","","","","",""
"","","","","","html-keyboard-response","57","127877","0.0-46.0-0.11-0.11","","null","Please wait while the experiment is loading...<br><br> (This could take a few minutes, if you are on a slow connection)","null","","","","","","","","",""
"","","","","","html-keyboard-response","58","128892","0.0-46.0-0.12-0.12","","null","Please wait while the experiment is loading...<br><br> (This could take a few minutes, if you are on a slow connection)","null","","","","","","","","",""
"","","","","","html-keyboard-response","59","129910","0.0-46.0-0.13-0.13","","null","Please wait while the experiment is loading...<br><br> (This could take a few minutes, if you are on a slow connection)","null","","","","","","","","",""
"","","","","","html-keyboard-response","60","130914","0.0-46.0-0.14-0.14","","null","Please wait while the experiment is loading...<br><br> (This could take a few minutes, if you are on a slow connection)","null","","","","","","","","",""
"","","","","","html-keyboard-response","61","131962","0.0-46.0-0.15-0.15","","null","Please wait while the experiment is loading...<br><br> (This could take a few minutes, if you are on a slow connection)","null","","","","","","","","",""
"","","","","","html-keyboard-response","62","132981","0.0-46.0-0.16-0.16","","null","Please wait while the experiment is loading...<br><br> (This could take a few minutes, if you are on a slow connection)","null","","","","","","","","",""
"","","","","","html-keyboard-response","63","133984","0.0-46.0-0.17-0.17","","null","Please wait while the experiment is loading...<br><br> (This could take a few minutes, if you are on a slow connection)","null","","","","","","","","",""
"","","","","","html-keyboard-response","64","163133","0.0-46.0-1.0","","29145","Experiment has finished loading.<br><br>Press <b>any key</b> to start."," ","","","","","","","","",""
"true","","","","","fullscreen","65","170149","0.0-47.0","","","","","","","","","","","","",""
"","","","","","canvas-keyboard-response","66","175567","0.0-48.0-0.0-0.0","","2565","","arrowright","[264,953,523,499,122,629,596,675,54,944,232,22,238,748,977,999,358,615,952,64,570,839,172,84,210,415,355,471,777,480,610,263,544,254,754,223,768,801,897,184,253,528,116,719,628,217,221,121,982,504,914,693,840,163,276,377,658,877,280,926,532,492,851,667,429,910,551,542,224,481,333,860,388,341,323,273,617,561,873,87,568,526,130,467,583,99,294,993,338,783,394,514,555,861,8,278,584,990,989,308,98,618,987,623,742,149,879,287,976,215,588,198,97,815,515,522,82,567,918,220,664,80,874,407,626,891,582,536,2,553,318,433,348,794,627,835,946,169,735,452,134,290,856,711,70,508,41,76,630,883,196,534,444,732,612,672,119,652,420,919,747,602,417,807,465,682,58,168,757,699,296,964,633,713,842,461,685,236,577,14,681,362,509,202,293,455,854,902,621,18,79,963,59,921,45,101,425,332,700,724,721,951,702,219,563,23,334,935,282,605,804,132,230,607,749,249,104,662,63,179,950,463,837,689,61,740,436,173,20,286,725,25,487,863,913,770,819,161,69,867,790,945,176,511,135,666,924,760,636,6,642,776,368,562,845,869,51,175,850,410,67,65,248,958,941,329,751,911,398,143,741,146,771,430,512,438,120,665,853,193,677,274,73,917,339,778,319,529,483,824,590,716,488,543,797,798,769,495,46,440,843,52,871,493,200,490,823,60,761,524,141,431,489,554,91,697,887,894,494,359,795,743,291,818,825,194,616,414,992,159,516,302,706,390,965,331,822,722,594,464,956,17,738,639,686,269,684,802,872,476,360,66,676,271,670,321,374,366,335,212,826,925,545,814,775,862,878,578,222,392,503,353,832,160,988,78,739,81,352,817,624,373,893,272,227,980,252,447,178,865,973,138,115,181,192,301,968,406,475,942,454,53,940,631,342,364,128,717,314,363,129,557,203,30,994,870,927,938,300,912,313,409,538,55,484,7,384,948,174,197,277,729,932,752,36,726,15,800,466,712,242,885,640,962,507,922,599,868,848,705,472,376,153,201,11,654,601,546,345,474,625,983,370,673,111,418,195,89,720,346,695,780,540,611,533,901,707,580,110,774,443,556,796,156,228,386,322,866,396,453,375,437,970,690,849,28,550,788,915,261,327,920,125,108,379,35,592,821,305,569,16,285,450,755,44,907,292,458,426,576,905,986,411,984,328,643,779,50,678,441,182,653,103,846,766,535,574,9,799,191,442,39,258,762,383,251,266,74,62,218,419,432,593,344,513,295,412,381,679,892,810,399,997,357,855,660,68,26,435,365,714,245,446,710,136,934,758,831,622,214,772,908,211,517,216,727,255,354,150,324,246,756,428,247,694,497,106,171,647,638,421,811,24,177,405,876,190,180,674,900,133,960,460,884,206,646,268,157,239,349,391,734,310,380,336,337,208,655,598,289,975,477,298,29,148,40,233,204,929,49,478,320,162,764,669,57,718,895,42,728,297,189,579,267,841,549,889,284,619,949,107,961,620,933,971,139,92,256,404,482,288,241,683,745,812,400,857,985,469,539,937,326,351,632,564,250,606,281,19,806,506,936,767,791,691,903,502,187,109,209,71,600,347,566,955,656,906,847,356,844,784,792,759,303,226,589,145,496,645,898,395,275,185,649,565,537,434,614,140,608,451,530,124,785,701,715,886,809,500,151,165,587,330,648,4,959,765,1,117,445,904,37,199,12,899,864,47,525,737,350,144,164,597,207,559,709,325,888,306,416,188,858,947,112,244,657,75,408,186,763,813,916,147,5,142,457,519,479,703,427,604,299,378,486,773,978,100,262,692,744,234,48,315,634,820,56,83,966,644,361,225,521,459,803,972,996,401,731,260,957,259,372,786,650,943,581,95,385,237,312,781,560,33,787,830,663,462,808,641,981,708,688,309,541,548,753,750,382,77,575,126,603,730,661,113,10,939,505,213,859,881,90,573,85,827,343,613,547,283,367,470,671,123,96,423,393,34,94,782,86,828,31,389,931,510,158,240,166,595,974,205,265,793,558,88,552,402,746,127,572,736,279,991,969,43,422,923,154,93,687,316,880,449,816,930,317,789,498,397,155,114,448,102,805,967,304,659,369,229,439,235,170,403,637,167,518,833,243,586,491,257,485,501,954,998,340,635,723,371,852,979,704,307,698,527,105,909,183,27,13,571,834,733,531,21,473,882,231,875,311,680,413,387,38,270,456,32,651,591,896,668,995,424,696,72,585,131,520,609,118,836,0,928,829,152,3,838,137,468,890]","arrowright","","true","0","0","300","1000","[""0079_N1000_K0300_NOCLIQUE"",""0055_N1000_K0300_CLIQUE""]"
"","","","","","audio-keyboard-response","67","176721","0.0-48.0-0.0-1.0","","null","audio_feedback/right/coin01.mp3","null","","","","","0","0","300","1000","[""0079_N1000_K0300_NOCLIQUE"",""0055_N1000_K0300_CLIQUE""]"
"","","","","","canvas-keyboard-response","68","180120","0.0-49.0-0.0-0.0","","903","","arrowleft","[724,533,435,183,845,137,468,644,525,388,919,364,190,677,569,551,699,779,230,917,9,833,838,297,32,255,448,289,861,742,259,573,412,478,610,403,221,13,518,521,761,513,725,306,317,943,187,611,522,253,59,231,151,782,634,973,154,81,160,510,805,489,324,666,709,768,257,653,217,614,228,822,271,515,305,417,637,739,812,169,487,262,727,425,2,685,244,394,599,46,741,537,593,368,171,759,239,586,965,150,452,526,690,61,159,584,744,424,381,498,912,877,679,172,280,631,880,74,952,66,747,112,17,810,216,512,660,334,3,178,519,401,990,843,736,703,542,722,332,745,136,588,373,389,494,37,881,820,156,113,670,668,945,99,554,395,523,302,177,202,284,485,56,346,710,629,988,243,153,358,957,656,698,985,647,57,870,567,95,276,413,48,898,433,147,582,443,399,878,477,807,343,301,871,158,185,713,376,546,730,734,11,939,261,566,68,619,329,764,704,496,911,612,920,837,73,63,161,738,441,265,646,375,539,889,453,40,721,534,165,615,892,564,960,181,671,786,559,818,696,434,200,203,415,982,391,173,506,543,796,500,76,962,422,455,804,863,402,869,895,21,944,460,23,70,354,633,823,497,18,848,841,908,429,312,418,467,627,377,767,206,58,44,926,472,998,386,94,273,127,341,766,278,396,953,937,913,672,705,360,918,760,226,91,69,828,832,854,62,459,242,322,198,862,235,486,527,163,148,238,731,294,420,600,104,783,613,268,875,220,482,520,661,716,585,940,54,237,639,876,868,780,916,365,213,444,966,470,605,197,186,362,493,316,378,507,790,659,430,124,827,307,130,267,142,641,291,125,903,449,915,702,819,575,295,107,225,55,532,34,844,90,374,293,553,628,638,184,706,432,776,93,897,662,936,883,60,860,851,514,501,16,640,995,992,770,28,29,536,246,450,282,726,616,194,333,983,269,568,793,667,813,951,798,683,205,834,431,30,792,303,437,541,886,281,372,146,955,461,201,839,119,345,12,581,174,15,315,491,806,103,208,931,773,548,353,366,809,67,598,997,275,657,502,337,589,749,676,481,524,392,439,840,580,535,331,715,379,556,947,658,680,934,558,406,624,708,824,114,77,769,750,143,981,447,106,369,335,996,135,511,129,20,499,410,974,772,560,240,254,561,540,626,994,50,440,212,179,814,84,763,299,192,811,14,929,123,787,674,923,241,681,855,808,454,503,775,411,636,587,304,24,756,563,740,859,550,318,552,557,864,697,22,328,788,509,946,602,517,300,414,858,116,270,223,789,319,436,466,492,836,256,409,86,632,961,426,882,927,196,416,544,528,5,350,669,969,642,816,152,35,571,989,972,665,327,356,735,96,651,508,922,753,260,733,673,488,180,390,689,338,52,458,219,801,19,249,26,382,355,654,977,75,140,349,717,204,79,82,344,229,363,967,850,623,484,797,603,617,987,340,101,857,188,608,991,385,718,803,464,948,891,754,8,195,380,45,111,227,925,463,765,590,311,888,122,39,405,168,597,732,314,938,831,451,128,968,64,330,729,645,884,902,277,131,126,959,120,655,999,649,446,1,935,930,476,956,621,308,155,97,445,321,885,89,367,856,531,495,157,755,250,924,771,339,42,579,971,874,894,51,404,456,950,25,473,211,691,817,652,248,896,288,562,933,758,887,247,958,290,572,728,49,407,175,31,853,170,47,78,251,986,949,144,325,347,663,98,975,664,475,606,873,258,778,7,737,393,688,189,209,643,866,852,108,351,695,166,678,928,191,601,620,693,701,233,757,784,906,348,565,648,310,682,167,910,594,72,87,774,65,993,274,215,746,423,830,483,530,825,799,748,849,117,684,942,92,941,462,574,141,490,630,963,218,980,359,279,835,370,743,829,578,139,421,932,802,583,842,777,83,516,313,785,85,867,115,607,323,193,134,901,505,570,182,846,687,591,361,88,979,914,800,720,384,762,145,872,650,970,719,529,53,794,865,0,199,592,904,283,471,549,352,595,465,795,266,138,232,210,976,921,292,109,692,296,791,984,555,545,547,909,635,427,707,118,538,781,234,442,826,675,309,6,4,622,400,711,900,899,398,700,214,287,224,149,41,272,604,596,686,469,954,263,132,102,43,714,176,33,38,387,10,905,397,80,625,893,285,964,264,879,371,419,474,252,105,236,576,428,298,164,438,618,821,357,907,286,457,383,723,890,408,71,320,577,712,326,480,336,752,162,342,609,207,847,245,222,479,978,751,121,27,815,100,694,133,504,36,110]","arrowleft","","true","0","1","300","1000","[""0094_N1000_K0300_CLIQUE"",""0025_N1000_K0300_NOCLIQUE""]"
"","","","","","audio-keyboard-response","69","181112","0.0-49.0-0.0-1.0","","null","audio_feedback/right/coin01.mp3","null","","","","","0","1","300","1000","[""0094_N1000_K0300_CLIQUE"",""0025_N1000_K0300_NOCLIQUE""]"
"","","","","","canvas-keyboard-response","70","184567","0.0-50.0-0.0-0.0","","791","","arrowleft","[984,953,486,514,245,955,576,770,59,697,814,910,98,741,724,693,439,588,223,456,268,141,515,345,561,343,994,982,776,846,893,995,867,768,102,978,87,704,105,275,35,512,24,800,570,426,931,958,775,997,806,0,430,609,518,759,445,372,361,559,827,341,663,623,935,19,150,726,578,193,877,541,346,342,851,727,593,764,718,748,71,734,175,167,779,423,921,680,963,522,719,273,632,881,70,781,301,878,400,285,937,200,954,961,411,182,147,816,174,225,95,495,156,548,27,742,533,323,876,125,148,914,666,176,292,438,458,917,352,272,227,787,171,130,862,820,600,543,843,499,494,948,114,214,57,880,491,388,363,347,187,67,62,154,318,517,506,755,766,660,907,507,421,916,161,889,762,422,737,479,911,243,13,14,811,61,77,49,964,546,527,407,730,989,831,983,643,357,68,295,113,284,309,251,487,298,669,585,551,74,206,879,205,554,568,750,652,604,136,101,149,703,253,581,799,270,611,216,923,677,22,256,277,396,355,263,134,823,308,415,818,326,18,751,841,646,137,584,142,500,835,898,418,362,429,699,173,854,601,901,408,622,248,558,929,571,165,210,815,234,32,594,365,990,617,371,681,48,804,112,452,869,694,695,468,152,17,449,120,865,642,282,12,808,398,221,168,498,735,696,299,583,399,69,395,857,842,186,960,127,470,683,354,985,641,653,191,60,794,729,286,385,222,283,692,712,926,53,884,524,350,980,733,962,267,291,913,325,276,490,196,269,488,599,265,720,380,756,475,859,4,33,121,505,322,209,476,577,579,957,976,435,563,891,744,684,722,872,128,297,608,934,331,709,52,376,998,502,967,466,317,792,672,36,109,436,151,231,988,419,492,789,100,437,987,702,199,895,572,874,473,188,590,261,211,523,639,390,525,640,478,942,83,657,235,618,467,181,613,654,402,970,82,464,925,403,667,715,788,875,159,93,765,229,236,992,391,610,293,241,7,757,183,393,701,153,319,596,526,545,721,645,420,586,195,3,574,469,73,552,244,883,753,607,822,164,306,249,605,133,31,886,679,132,899,79,433,58,602,825,536,72,252,619,271,386,975,383,864,163,232,431,11,90,450,690,10,8,315,966,716,462,682,320,353,847,444,485,858,381,45,123,807,264,81,664,786,678,528,424,940,977,85,304,905,397,833,394,329,631,287,567,172,634,496,890,938,974,813,595,763,405,34,413,465,6,410,255,451,321,920,805,296,687,21,364,118,932,483,157,573,949,896,534,752,902,777,41,580,828,531,336,732,481,170,539,856,650,360,819,784,460,767,649,885,780,138,213,224,218,250,668,900,538,240,627,897,659,924,747,155,349,189,714,280,803,549,202,909,254,979,644,446,656,335,888,844,802,111,448,927,237,860,560,629,665,906,783,520,108,866,706,194,564,863,337,621,257,324,89,648,793,401,497,106,603,685,64,230,140,471,943,472,358,511,544,75,532,840,537,871,691,166,626,778,758,941,122,503,348,739,115,312,817,830,434,965,274,219,746,233,565,912,119,801,592,959,169,104,1,453,950,339,991,197,5,9,158,373,933,96,387,228,185,217,184,443,782,310,790,482,760,39,707,555,20,367,266,557,15,63,547,939,945,51,43,597,99,636,56,177,91,868,54,489,260,212,508,38,670,513,606,658,78,327,278,723,556,569,432,535,454,124,689,947,302,849,996,968,441,334,630,66,414,126,728,754,710,427,981,84,110,761,92,459,501,328,832,80,370,591,288,829,259,207,821,553,894,46,834,922,204,612,338,529,773,861,542,705,305,389,332,873,504,972,107,40,86,103,294,484,88,870,129,725,795,2,258,930,749,688,530,698,455,673,143,344,850,598,279,369,736,144,510,845,198,625,94,180,838,853,796,785,956,215,493,633,798,203,839,307,409,589,26,582,162,378,281,713,440,711,247,855,220,887,655,946,37,671,412,686,848,550,368,50,614,330,289,442,675,160,944,772,463,624,836,178,480,208,226,661,116,461,28,97,314,47,674,615,616,904,638,676,447,516,179,973,316,382,745,146,918,731,810,837,416,145,474,242,635,76,377,384,406,16,404,428,239,587,42,852,575,771,566,620,882,708,700,540,23,908,44,628,477,131,519,392,986,999,812,139,417,262,333,971,562,662,190,425,952,238,201,651,928,791,340,743,717,303,117,774,55,969,892,379,738,637,797,509,246,290,30,951,521,740,903,192,824,65,769,359,647,25,356,366,135,375,915,313,919,809,29,311,351,374,300,936,457,826,993]","arrowleft","","true","0","2","267","1000","[""0009_N1000_K0267_CLIQUE"",""0081_N1000_K0267_NOCLIQUE""]"
"","","","","","audio-keyboard-response","71","185571","0.0-50.0-0.0-1.0","","null","audio_feedback/right/coin01.mp3","null","","","","","0","2","267","1000","[""0009_N1000_K0267_CLIQUE"",""0081_N1000_K0267_NOCLIQUE""]"
"","","","","","canvas-keyboard-response","72","188894","0.0-51.0-0.0-0.0","","820","","arrowleft","[907,98,66,46,406,147,310,328,626,965,72,826,272,868,125,548,208,250,963,700,808,719,177,811,362,648,304,786,433,471,964,446,86,356,469,952,474,489,986,639,201,730,430,209,141,878,104,622,176,854,634,204,778,94,444,60,553,291,863,135,368,234,732,981,445,514,600,49,666,43,200,16,598,31,679,58,357,281,956,703,182,186,908,505,667,661,642,238,922,978,203,429,573,967,51,770,119,34,140,704,47,415,255,602,354,274,752,681,818,459,564,67,632,0,4,350,591,736,163,647,832,966,470,620,14,171,561,984,745,930,835,331,432,797,283,848,542,472,244,150,421,308,670,510,723,977,901,317,321,395,175,993,223,838,518,231,475,495,378,91,217,349,566,502,815,413,641,342,697,582,355,288,258,727,101,992,418,979,895,161,173,428,210,109,547,825,741,499,426,170,587,313,142,523,82,136,538,712,764,710,146,316,118,366,799,531,107,375,379,20,817,606,528,676,453,73,762,455,640,466,643,845,486,19,948,132,787,344,221,312,490,692,298,543,565,768,794,976,380,155,296,790,467,761,683,823,668,906,205,335,347,689,409,728,111,912,801,185,482,932,585,858,724,672,527,954,189,212,974,829,803,958,592,279,880,282,222,520,960,414,81,352,224,481,519,686,658,103,33,382,816,571,852,649,260,30,226,557,754,159,40,359,938,959,193,955,21,128,635,10,847,74,645,487,480,850,371,772,654,555,763,891,299,596,277,12,230,116,124,669,54,188,373,733,725,9,713,92,933,207,532,245,423,834,407,229,325,457,792,937,389,997,608,748,8,422,894,721,468,425,235,384,540,701,947,680,621,7,940,619,744,923,360,625,846,289,637,195,266,392,417,25,766,164,804,248,172,969,370,856,595,390,791,831,287,869,983,478,106,990,775,526,386,348,722,322,807,650,63,385,662,588,580,865,129,262,99,946,476,256,690,48,607,341,399,652,857,675,785,42,884,75,11,507,484,716,996,1,456,249,232,822,133,462,237,448,265,779,451,911,102,305,900,492,353,613,729,465,18,403,753,530,131,388,181,45,747,780,84,387,494,151,968,554,874,311,242,707,130,862,460,604,711,37,228,614,100,738,491,664,452,802,830,158,656,263,326,973,450,828,361,909,402,994,601,972,461,756,529,427,833,115,805,97,438,987,659,199,734,405,219,693,866,873,840,962,365,174,77,931,717,776,496,688,122,463,651,861,323,925,85,999,343,617,218,536,339,751,215,39,982,294,285,57,674,726,877,393,383,62,93,143,477,233,549,841,586,401,559,225,254,442,315,870,330,318,27,112,319,936,36,424,860,584,809,301,458,431,511,336,820,145,618,79,297,810,41,216,88,166,295,15,893,441,615,35,796,320,259,513,715,788,363,742,55,646,579,918,673,789,127,842,436,867,32,677,988,337,545,153,440,410,759,206,550,644,533,706,814,881,943,396,813,400,404,522,896,273,220,720,83,117,916,70,253,275,853,624,144,184,691,739,899,577,257,411,71,578,278,243,844,483,504,416,87,663,197,913,843,113,358,567,975,397,435,398,629,771,544,630,953,671,684,888,307,346,589,524,898,562,638,718,68,180,628,603,876,709,108,546,437,926,284,364,572,110,292,44,731,80,52,345,935,268,17,78,950,23,593,6,821,139,194,89,836,293,678,581,539,934,351,605,148,610,864,563,168,616,696,570,376,627,687,61,264,698,889,594,902,556,3,819,568,227,757,191,941,576,149,655,929,924,434,105,699,777,837,192,961,575,812,22,251,597,76,944,167,498,750,439,781,377,333,800,120,882,653,157,126,53,872,280,267,903,65,408,849,758,989,774,917,783,169,369,162,454,26,473,270,420,611,636,332,517,334,921,609,569,784,300,367,914,765,887,897,303,443,755,905,795,503,782,942,541,886,213,515,338,945,178,269,449,187,239,793,991,340,64,746,114,949,558,50,535,806,137,412,374,879,623,160,957,583,521,314,735,859,464,951,306,419,2,871,552,767,743,38,123,190,302,560,827,705,286,13,96,737,506,447,851,493,372,261,236,211,271,660,391,599,915,682,241,90,885,633,156,324,240,134,276,685,883,631,485,28,714,740,154,138,488,919,290,509,890,329,381,537,394,501,798,769,500,695,214,202,694,29,590,183,327,920,247,198,525,612,998,665,928,702,939,985,309,246,910,551,534,152,56,875,970,508,479,5,196,95,497,252,927,512,839,824,971,995,760,69,24,749,773,165,516,657,121,855,904,892,59,980,179,708,574]","arrowleft","","true","0","3","267","1000","[""0008_N1000_K0267_CLIQUE"",""0096_N1000_K0267_NOCLIQUE""]"
"","","","","","audio-keyboard-response","73","189881","0.0-51.0-0.0-1.0","","null","audio_feedback/right/coin01.mp3","null","","","","","0","3","267","1000","[""0008_N1000_K0267_CLIQUE"",""0096_N1000_K0267_NOCLIQUE""]"
"","","","","","canvas-keyboard-response","74","193489","0.0-52.0-0.0-0.0","","715","","arrowright","[573,916,457,456,677,727,998,936,79,925,622,641,411,824,279,114,759,186,239,316,481,858,247,468,215,725,9,559,556,813,278,393,119,627,315,43,207,165,812,94,478,174,196,360,428,371,465,485,210,212,2,849,860,244,986,262,590,957,126,569,291,716,708,796,32,632,233,879,153,93,500,806,176,787,489,492,3,166,653,95,959,688,54,438,379,980,231,308,848,80,963,57,156,888,34,903,785,113,770,763,965,205,256,673,102,237,694,747,375,577,923,408,828,341,184,851,797,642,781,600,777,434,67,21,947,560,366,940,721,466,307,135,313,515,292,591,18,928,966,68,121,871,488,974,710,74,558,942,378,610,219,655,354,7,615,705,4,954,211,188,511,865,123,885,576,724,704,81,88,275,968,56,738,893,290,557,941,799,282,514,529,386,989,214,421,179,811,486,45,631,37,332,546,220,598,736,639,551,671,746,820,756,92,470,462,480,289,587,318,405,41,852,661,99,920,589,697,507,516,850,404,538,739,47,786,178,995,913,911,912,192,82,333,406,340,330,521,320,750,194,361,417,446,273,6,664,437,689,53,990,87,574,195,181,608,294,422,761,827,844,443,678,662,588,953,948,85,111,692,357,555,343,510,396,891,221,243,946,363,138,804,832,175,992,623,201,140,554,263,687,803,319,620,407,484,875,60,445,531,541,8,540,800,384,549,46,816,328,395,907,720,910,349,455,904,506,48,137,55,935,581,31,633,364,630,295,154,390,490,991,498,597,861,204,734,532,129,882,722,254,89,565,238,338,461,918,779,487,391,686,107,967,937,347,98,450,908,448,862,452,460,743,148,155,768,751,25,821,35,77,856,525,952,919,601,44,749,868,826,753,23,874,160,715,501,482,388,866,649,735,382,809,670,180,586,281,603,841,120,336,40,778,16,695,802,831,647,536,303,774,133,235,914,534,726,612,306,905,943,218,680,283,988,823,699,454,12,317,327,10,762,150,993,815,693,646,190,234,944,369,869,169,606,314,162,36,403,72,898,707,267,104,83,451,167,433,582,392,170,651,645,240,168,672,982,654,312,783,495,367,701,872,261,863,356,66,808,305,855,372,814,227,286,572,700,425,471,163,730,136,758,877,674,116,684,839,412,776,870,503,819,200,894,547,519,579,17,833,951,703,19,764,702,245,853,767,657,483,997,228,884,302,272,550,535,681,246,376,115,854,172,784,994,209,580,152,690,368,873,73,837,51,350,420,42,268,474,818,334,766,897,757,84,75,958,886,594,956,522,345,449,271,698,987,440,362,668,775,15,791,706,628,972,517,112,124,229,835,105,49,960,230,571,38,59,789,659,883,187,106,955,288,950,834,640,830,754,248,889,922,964,259,843,741,899,216,419,0,543,325,983,381,772,134,497,625,508,329,118,718,745,616,189,629,847,836,61,297,817,933,423,122,309,524,909,128,810,131,530,771,64,502,568,660,58,609,711,331,284,399,413,355,915,962,545,383,679,1,164,801,109,755,90,714,70,171,431,208,385,467,896,103,790,996,981,374,744,206,520,96,917,269,225,101,553,24,961,864,733,626,552,400,5,424,65,578,712,463,822,892,203,258,794,825,504,605,223,277,145,324,652,634,442,304,971,473,499,33,39,748,934,867,584,447,845,255,637,614,86,359,198,737,667,464,593,177,675,142,638,377,475,575,387,729,788,78,71,527,975,491,713,548,242,973,241,939,644,878,494,199,380,949,805,310,723,648,876,619,618,732,415,683,217,656,323,564,666,76,183,544,27,436,970,151,132,906,472,293,321,890,285,127,298,696,311,477,760,636,365,348,197,533,595,469,842,402,479,22,91,895,266,100,523,301,264,441,226,63,276,401,793,984,370,185,430,926,265,719,938,978,149,887,222,604,69,335,157,274,439,566,125,108,979,900,728,635,773,191,280,676,607,427,418,617,29,110,857,570,416,143,353,881,159,476,798,62,782,296,352,50,394,717,977,344,432,28,901,52,650,322,518,765,929,173,859,373,539,599,252,26,562,613,583,945,561,147,838,202,924,193,902,665,621,921,927,30,397,458,528,669,444,685,846,435,976,931,999,585,663,257,358,930,351,807,158,769,985,792,161,542,691,260,643,146,11,414,563,409,249,459,880,795,337,250,389,410,829,287,780,932,969,505,232,270,567,429,213,117,224,141,253,537,20,742,596,346,752,139,251,339,526,13,182,97,512,342,740,496,453,236,592,299,731,513,426,624,14,398,144,602,840,509,658,493,709,326,130,300,611,682]","arrowright","","true","0","4","233","1000","[""0002_N1000_K0233_NOCLIQUE"",""0076_N1000_K0233_CLIQUE""]"
"","","","","","audio-keyboard-response","75","194489","0.0-52.0-0.0-1.0","","null","audio_feedback/right/coin01.mp3","null","","","","","0","4","233","1000","[""0002_N1000_K0233_NOCLIQUE"",""0076_N1000_K0233_CLIQUE""]"
"","","","","","canvas-keyboard-response","76","197998","0.0-53.0-0.0-0.0","","910","","arrowright","[301,399,497,163,165,454,568,552,460,607,658,296,126,495,952,769,62,238,106,513,398,885,706,834,179,276,380,693,723,464,319,883,23,586,589,936,176,907,502,45,132,978,284,961,849,637,699,880,935,447,548,124,485,721,831,371,959,896,665,865,720,150,803,805,113,571,82,799,501,710,474,405,900,579,139,387,109,389,184,140,745,491,369,553,520,81,320,430,580,223,999,455,118,576,116,584,144,950,764,749,373,813,155,624,221,912,826,291,851,788,626,467,217,852,783,333,100,154,772,847,618,372,349,428,822,679,938,24,14,289,271,836,691,46,157,694,337,172,993,216,646,496,918,832,377,616,363,105,160,608,988,401,168,942,161,672,995,673,595,601,692,42,655,640,441,34,85,368,63,660,808,859,976,914,962,461,244,79,346,750,902,193,344,19,252,67,848,888,684,809,531,939,708,49,26,87,505,648,332,104,86,135,272,133,676,72,352,821,456,807,641,472,521,353,633,0,294,998,338,77,433,931,743,892,446,93,612,718,544,683,886,341,159,862,861,909,298,142,540,619,386,827,156,703,868,78,753,245,226,256,470,768,388,187,334,278,403,40,734,941,965,645,108,887,647,642,857,450,510,955,64,985,572,28,189,265,206,360,855,846,903,376,408,107,639,525,986,779,209,555,685,340,722,293,714,564,197,92,716,992,690,304,51,412,975,204,61,222,212,969,480,312,791,479,981,162,947,727,300,54,508,471,111,667,916,1,792,741,606,951,313,565,180,201,484,253,524,627,664,442,200,890,542,220,919,562,625,422,698,452,331,662,927,583,440,797,316,671,127,91,60,917,509,70,688,760,780,232,957,381,421,243,654,208,358,894,773,94,152,970,910,196,549,522,897,728,50,506,134,240,188,268,52,427,37,704,603,264,604,845,891,409,528,262,823,11,357,559,375,712,55,787,283,114,423,911,181,812,588,994,323,451,503,41,476,407,147,756,977,420,757,775,860,968,776,202,396,418,89,458,755,777,297,948,928,804,102,347,5,920,336,830,697,915,537,499,10,515,763,438,940,990,889,526,535,324,218,73,290,448,311,498,194,796,125,490,158,123,815,307,241,122,449,274,90,83,477,751,288,631,800,819,669,635,169,729,457,817,444,356,99,275,882,516,682,869,956,277,560,171,391,732,348,65,730,924,622,761,327,429,934,229,35,802,786,84,481,561,793,814,747,74,343,798,922,414,762,17,250,225,979,514,56,486,153,410,794,224,47,746,103,925,740,700,547,767,211,913,335,203,362,701,539,29,492,754,906,445,406,18,850,944,13,581,963,299,991,308,317,459,620,263,315,709,932,285,964,634,824,174,30,748,591,937,717,382,207,801,4,214,971,739,246,967,982,530,587,532,489,247,53,675,75,115,131,590,610,736,577,33,517,872,611,39,2,854,923,27,724,38,752,677,68,806,518,592,996,689,726,825,76,416,958,138,512,838,795,656,295,44,493,765,434,557,329,901,466,870,828,69,933,71,59,177,339,945,617,997,175,567,235,435,541,696,98,731,255,636,129,867,949,350,623,215,705,166,876,58,364,267,578,112,425,670,511,146,397,80,989,893,6,198,167,110,507,629,735,839,554,9,778,117,359,130,266,191,853,545,205,453,351,895,674,543,213,170,774,908,529,487,983,600,234,96,681,966,614,598,638,32,260,816,25,149,702,137,536,644,417,16,230,469,811,758,249,766,20,306,652,960,596,314,251,7,574,953,321,737,57,305,494,325,582,873,871,259,818,367,573,473,328,185,178,594,465,237,119,566,400,519,242,585,121,844,239,432,551,303,286,632,426,269,282,615,248,659,742,651,366,309,257,563,415,233,695,383,678,394,943,835,621,475,605,186,599,270,318,558,173,22,987,424,527,210,330,182,342,478,781,570,287,686,877,878,790,649,310,613,261,680,930,436,784,365,864,504,36,946,668,905,463,385,898,322,719,843,556,482,273,354,419,292,593,715,15,921,488,602,785,378,437,379,833,413,863,443,770,881,12,190,95,370,879,279,258,164,643,597,141,326,3,345,280,841,199,143,136,771,66,483,926,829,374,145,183,711,759,8,228,404,546,984,929,972,384,439,151,875,195,884,974,904,630,954,663,402,120,657,392,31,980,390,231,88,236,661,713,666,842,533,628,97,538,361,820,500,782,411,281,148,653,650,733,687,858,48,101,254,395,302,128,534,840,355,866,227,21,431,609,550,192,219,43,393,468,523,837,856,462,973,569,707,725,789,738,874,899,575,744,810]","arrowright","","true","0","5","233","1000","[""0041_N1000_K0233_NOCLIQUE"",""0020_N1000_K0233_CLIQUE""]"
"","","","","","audio-keyboard-response","77","198990","0.0-53.0-0.0-1.0","","null","audio_feedback/right/coin01.mp3","null","","","","","0","5","233","1000","[""0041_N1000_K0233_NOCLIQUE"",""0020_N1000_K0233_CLIQUE""]"
"","","","","","canvas-keyboard-response","78","202200","0.0-54.0-0.0-0.0","","709","","arrowright","[74,476,734,435,758,535,255,611,151,594,673,411,784,883,471,441,644,146,372,580,136,542,418,838,373,865,928,314,247,795,307,746,464,500,422,282,340,356,159,42,951,893,729,639,400,21,699,3,295,900,499,284,317,595,833,132,797,226,449,722,837,357,959,991,460,627,172,306,384,782,779,608,475,513,823,539,528,451,14,346,969,763,919,137,27,711,554,814,752,565,723,770,791,886,563,628,662,51,129,810,921,374,477,79,724,9,135,75,522,61,755,321,81,455,556,29,541,224,39,463,202,303,737,930,906,212,489,336,98,444,863,208,348,221,598,585,619,582,848,114,766,947,825,813,750,945,751,517,534,525,692,665,744,898,774,572,222,678,461,934,546,452,867,433,134,367,105,877,992,293,133,869,618,650,888,194,236,705,942,174,802,309,232,108,478,583,896,590,602,420,88,54,834,715,238,259,669,680,49,613,389,423,262,557,944,830,296,482,971,450,785,33,515,604,943,543,526,65,985,123,343,578,442,443,575,674,703,277,666,667,811,217,23,853,382,732,71,569,736,40,643,890,764,642,118,196,227,679,445,160,603,268,85,963,956,329,567,950,299,462,142,894,369,436,882,249,547,376,103,939,383,57,523,967,48,432,481,171,26,719,982,777,626,265,923,70,44,371,294,312,111,881,315,275,113,410,468,431,45,548,162,986,561,424,798,230,257,903,503,647,629,25,93,393,688,1,949,59,20,448,623,664,491,926,18,319,395,933,199,796,46,102,721,41,589,687,271,359,153,895,414,305,168,783,691,220,677,768,530,696,130,606,327,646,363,859,527,112,873,251,292,733,866,536,206,480,772,809,914,545,248,256,845,234,149,775,856,504,290,519,661,902,328,912,651,908,95,709,297,10,96,447,235,218,427,360,954,50,520,396,694,30,56,493,398,415,819,138,143,858,973,403,874,698,355,267,612,918,497,281,889,365,391,927,273,505,115,558,332,11,832,787,421,849,922,287,648,776,16,401,915,211,195,456,761,145,826,479,494,90,377,186,73,110,601,625,32,820,324,375,121,660,89,508,412,92,100,672,298,225,829,929,242,872,165,175,885,91,390,659,940,741,264,681,609,269,322,192,53,840,399,394,15,521,466,871,0,487,532,552,106,484,300,718,576,344,725,169,961,655,101,126,983,152,439,239,228,909,538,470,241,179,380,827,8,47,998,446,593,701,975,459,204,831,905,161,209,742,566,511,437,684,586,740,599,215,917,836,187,469,261,66,716,984,278,140,193,263,937,957,747,182,571,996,960,425,397,568,341,843,337,107,507,178,409,817,260,988,564,34,710,884,147,38,994,509,150,274,87,191,413,163,280,529,331,743,981,920,735,404,285,972,675,682,392,379,861,492,533,190,846,727,351,252,754,378,964,916,632,851,465,562,80,976,806,962,549,467,117,253,77,349,458,987,980,214,472,128,291,706,816,156,36,485,67,516,345,870,4,243,630,792,207,498,596,119,670,658,364,634,354,803,946,553,310,948,213,488,570,402,935,231,24,366,880,254,897,938,506,730,200,979,537,748,953,362,358,600,891,689,496,440,577,899,63,334,386,702,620,55,97,860,656,868,237,862,794,955,841,518,700,818,352,952,125,154,615,592,6,904,745,970,116,457,759,855,313,668,624,320,240,607,35,181,690,887,219,510,749,925,812,649,932,387,676,913,551,407,339,708,429,82,924,99,824,184,693,635,166,338,769,127,22,203,216,155,486,60,631,907,685,185,999,555,279,223,333,131,936,712,790,301,621,122,350,739,821,762,974,828,720,844,250,771,717,584,958,931,438,617,177,311,654,714,757,808,7,671,864,246,683,876,28,588,610,731,210,428,144,781,574,581,878,842,318,157,854,72,573,148,704,286,773,408,244,342,454,120,697,183,158,640,266,788,272,2,176,495,780,616,109,473,270,968,416,614,636,19,695,94,657,993,707,637,653,514,778,605,188,189,760,388,622,405,822,180,847,789,989,330,52,892,474,205,728,641,258,490,170,198,559,911,58,62,756,550,201,941,815,990,417,76,164,901,726,167,104,37,512,805,978,502,233,591,879,84,765,786,753,5,302,325,997,560,597,652,288,13,229,645,335,17,663,430,713,501,801,68,524,531,638,43,86,426,910,276,197,283,633,304,316,31,78,83,966,385,804,800,852,64,347,245,69,767,965,353,857,977,793,850,807,419,995,381,544,308,875,289,579,326,587,453,799,12,323,686,173,124,139,141,406,839,738,540,835,434,361,370,368,483]","arrowright","","true","0","6","217","1000","[""0099_N1000_K0217_NOCLIQUE"",""0087_N1000_K0217_CLIQUE""]"
"","","","","","audio-keyboard-response","79","203193","0.0-54.0-0.0-1.0","","null","audio_feedback/right/coin01.mp3","null","","","","","0","6","217","1000","[""0099_N1000_K0217_NOCLIQUE"",""0087_N1000_K0217_CLIQUE""]"
"","","","","","canvas-keyboard-response","80","206839","0.0-55.0-0.0-0.0","","810","","arrowleft","[221,779,554,424,888,750,352,135,635,467,608,83,350,292,60,147,825,388,534,863,854,921,337,59,106,311,532,802,946,694,954,898,273,653,131,930,184,159,506,14,699,795,279,304,171,742,968,284,369,489,62,454,241,40,610,189,775,490,618,153,702,121,666,772,23,584,931,97,0,213,347,498,815,410,217,726,822,328,335,644,880,955,20,972,706,812,102,641,255,875,190,728,420,27,948,66,361,334,670,886,549,118,437,28,357,88,15,168,374,691,225,962,25,173,257,910,957,872,705,811,43,805,183,474,713,326,114,576,535,200,400,856,580,299,676,719,52,830,95,602,176,462,450,752,376,473,451,727,359,366,116,739,204,704,659,998,544,483,743,327,609,315,531,703,175,144,158,73,345,407,152,259,800,19,790,575,557,231,433,638,216,45,988,187,543,520,813,301,944,681,393,103,846,291,696,303,371,459,101,965,243,793,389,443,969,7,69,545,458,597,24,596,964,862,809,446,422,421,615,984,325,861,709,530,522,444,508,614,917,471,639,263,5,479,11,757,718,46,565,842,417,264,140,320,332,723,601,415,72,540,354,598,344,499,674,928,660,934,202,631,282,164,377,232,782,729,913,356,552,39,941,182,808,358,642,843,577,362,402,9,365,725,218,887,373,932,353,821,903,111,877,316,127,835,923,229,427,993,591,178,844,92,323,179,447,404,533,329,181,908,904,261,383,262,99,516,157,148,55,70,33,425,979,528,901,493,868,341,712,277,525,51,885,4,85,607,398,986,418,109,997,307,658,599,767,878,784,976,629,133,491,267,798,240,442,611,756,502,754,833,331,154,656,364,999,61,63,524,480,137,500,847,156,333,956,560,860,912,950,806,515,268,649,783,466,919,840,624,788,701,679,529,871,781,538,17,731,929,966,792,866,380,541,810,669,457,150,134,927,579,113,124,484,16,567,848,622,143,56,807,592,983,212,378,122,235,974,219,937,478,839,349,748,188,449,461,136,253,98,708,995,79,254,260,883,249,128,290,278,233,129,368,452,507,227,469,736,698,339,296,1,224,864,621,78,650,252,269,555,857,266,897,464,687,902,690,819,375,198,436,34,468,746,29,281,139,504,973,710,338,873,110,322,562,564,242,123,527,604,563,312,186,238,949,879,745,637,21,32,105,737,663,429,10,566,395,203,244,967,587,250,818,248,829,546,551,58,643,851,849,869,132,751,247,145,724,836,755,57,688,226,47,907,859,542,895,733,384,228,309,94,647,310,391,827,431,510,672,961,890,794,640,162,991,547,96,302,448,716,75,920,695,892,495,163,633,76,205,762,80,735,657,239,313,382,855,632,423,251,662,432,108,412,497,619,107,692,409,630,697,539,613,401,826,295,512,732,211,600,521,31,428,172,824,485,22,342,582,899,207,606,678,285,318,13,91,939,536,617,896,749,526,867,41,476,414,100,340,370,975,766,294,193,573,797,138,978,289,651,673,272,816,54,758,760,652,938,926,686,180,730,648,117,628,298,120,990,556,161,550,199,900,589,126,82,314,141,222,593,774,574,994,234,689,166,86,160,519,568,804,820,440,265,67,996,925,36,89,578,321,654,721,230,734,300,634,789,891,850,570,119,351,664,744,411,776,256,801,778,115,149,889,786,787,465,214,336,245,655,270,992,44,201,274,722,381,513,348,438,367,882,142,192,518,125,942,646,35,935,893,416,482,220,623,977,194,287,711,8,594,195,93,980,288,753,405,987,845,305,685,439,406,572,612,215,435,595,858,959,275,503,918,785,509,667,236,661,514,197,765,838,319,38,84,791,209,68,588,355,924,343,453,773,48,668,456,940,276,943,487,501,684,817,741,445,237,916,488,434,720,65,258,397,517,283,6,386,392,764,909,625,413,481,112,396,982,130,894,441,394,496,675,50,759,747,306,403,671,470,616,831,958,399,196,472,933,293,146,297,571,770,590,870,680,463,771,981,763,970,717,53,780,408,90,271,558,49,191,693,505,77,37,853,2,286,3,385,714,64,324,492,620,682,561,81,308,581,828,280,246,346,740,915,387,884,906,330,834,486,985,419,852,210,583,42,914,104,71,865,426,626,206,738,796,876,167,585,768,548,922,665,379,700,460,707,165,151,155,677,586,963,553,185,645,511,430,170,455,715,814,87,683,832,989,569,537,945,30,911,177,881,841,12,761,823,559,26,223,936,475,627,477,74,837,960,803,777,769,18,523,372,953,169,799,952,905,605,390,947,360,208,363,317,951,636,174,603,874,971,494]","arrowleft","","true","0","7","217","1000","[""0059_N1000_K0217_CLIQUE"",""0005_N1000_K0217_NOCLIQUE""]"
"","","","","","audio-keyboard-response","81","207843","0.0-55.0-0.0-1.0","","null","audio_feedback/right/coin01.mp3","null","","","","","0","7","217","1000","[""0059_N1000_K0217_CLIQUE"",""0005_N1000_K0217_NOCLIQUE""]"
"","","","","","canvas-keyboard-response","82","212031","0.0-56.0-0.0-0.0","","964","","arrowright","[479,660,225,126,970,932,906,176,634,136,466,947,270,704,954,416,515,568,982,851,663,89,345,971,997,994,826,732,892,796,85,493,768,885,17,80,839,573,233,188,443,654,315,678,675,808,300,234,520,340,931,965,943,758,854,876,760,339,455,106,821,896,919,850,412,12,870,178,353,177,661,403,887,504,500,246,196,272,392,810,424,123,481,980,999,912,140,727,628,630,369,558,319,898,21,743,24,486,224,101,949,330,604,576,100,36,257,641,512,586,170,741,981,929,476,742,665,190,700,217,113,793,41,128,373,474,516,288,881,875,153,320,625,872,775,117,979,607,415,495,968,509,384,670,542,668,868,935,669,755,995,765,491,347,716,639,677,365,594,880,853,49,869,710,527,52,215,899,723,827,367,855,282,161,561,371,674,250,546,251,983,311,132,186,119,318,849,71,431,39,150,744,913,563,383,273,220,463,229,61,676,662,62,722,37,952,298,928,621,724,131,48,149,174,973,187,763,725,208,363,303,766,331,147,545,480,328,788,598,470,769,638,133,130,223,195,96,835,993,786,135,456,142,974,938,811,746,359,356,109,127,263,989,717,683,840,199,388,166,121,125,613,417,436,985,2,261,909,104,438,99,754,529,713,259,145,910,803,485,559,726,579,214,103,9,697,287,379,922,408,437,156,396,502,198,915,671,461,575,54,964,475,46,817,381,450,923,67,201,293,120,221,13,237,652,350,556,916,87,484,490,797,327,813,414,715,535,90,819,209,219,656,651,397,64,307,942,445,454,508,488,690,95,312,794,553,636,264,574,659,917,492,926,469,442,530,531,640,181,410,332,739,905,903,809,777,802,778,719,457,609,799,423,325,539,276,279,791,528,440,605,72,228,31,977,471,572,624,578,173,406,706,701,59,620,139,83,86,514,693,60,824,673,180,355,268,179,395,446,890,148,262,815,211,110,242,962,151,376,19,549,708,172,785,497,459,580,218,430,309,422,577,536,175,171,162,25,707,152,825,533,432,460,435,50,407,807,98,33,289,93,832,74,946,784,608,787,68,1,721,478,27,146,562,47,441,860,357,857,6,647,748,800,114,862,342,222,448,631,335,734,846,253,112,375,385,284,711,595,761,877,957,57,830,873,818,387,996,326,653,338,552,703,731,249,831,248,874,733,907,554,658,243,425,953,548,961,747,378,348,567,762,523,537,591,948,771,290,391,305,859,206,969,934,66,759,3,5,945,893,967,35,380,648,194,337,812,745,582,88,592,560,226,15,695,770,498,197,718,538,302,306,202,352,772,29,798,736,879,587,494,204,936,283,782,978,341,990,465,606,134,418,43,600,489,138,301,366,749,189,686,97,657,55,856,482,510,626,269,524,322,63,664,902,451,230,790,544,644,271,751,368,684,389,58,496,852,157,258,864,314,501,216,757,75,705,991,53,984,920,836,894,400,155,185,781,94,323,297,687,955,583,70,863,313,615,756,988,933,321,878,453,729,767,939,210,129,295,473,299,709,468,924,776,260,783,966,682,252,789,317,409,614,555,464,472,191,806,629,205,602,419,956,681,987,8,404,45,511,401,581,847,160,914,107,904,519,351,143,792,506,377,343,434,888,992,239,346,92,918,7,78,897,597,349,374,213,169,102,244,167,804,329,16,44,728,296,694,386,18,164,267,774,158,447,773,622,714,168,165,334,685,420,428,444,231,650,266,292,590,354,565,816,753,566,645,858,612,280,842,801,184,236,76,277,232,941,712,372,959,837,740,30,866,333,547,795,699,655,691,23,601,22,635,649,426,513,439,240,245,467,532,308,285,360,255,122,883,838,750,324,286,344,901,927,596,316,550,564,865,611,14,805,382,405,462,588,390,105,141,433,891,593,163,960,735,452,51,828,427,584,429,526,867,247,34,111,38,570,944,667,925,689,632,541,458,370,235,212,203,274,278,394,633,144,900,108,841,833,822,882,399,254,517,672,780,79,986,275,364,116,69,393,449,521,950,619,503,543,358,844,603,823,737,56,666,886,26,752,65,411,829,569,525,951,646,193,182,921,137,730,998,738,42,77,192,265,617,477,610,124,362,28,820,361,571,505,40,0,618,643,507,623,207,692,937,413,256,696,4,10,540,589,889,834,930,975,679,861,557,908,336,958,845,871,84,294,642,499,940,115,702,82,304,779,637,963,421,154,720,118,183,764,814,291,483,241,238,200,281,848,310,599,627,227,518,911,976,616,843,73,398,895,91,534,585,698,159,11,522,680,884,487,81,20,551,402,32,972,688]","arrowright","","true","0","8","200","1000","[""0081_N1000_K0200_NOCLIQUE"",""0001_N1000_K0200_CLIQUE""]"
"","","","","","audio-keyboard-response","83","213028","0.0-56.0-0.0-1.0","","null","audio_feedback/right/coin01.mp3","null","","","","","0","8","200","1000","[""0081_N1000_K0200_NOCLIQUE"",""0001_N1000_K0200_CLIQUE""]"
"","","","","","canvas-keyboard-response","84","216678","0.0-57.0-0.0-0.0","","1029","","arrowleft","[783,129,240,128,801,279,130,637,493,505,664,243,638,257,950,554,470,513,359,740,189,148,944,183,341,361,828,176,268,388,800,499,17,649,39,859,79,215,138,549,933,776,804,922,390,912,437,354,805,22,733,349,838,6,657,675,132,553,673,581,600,874,572,200,841,413,314,880,71,691,25,504,722,619,723,92,702,51,360,107,391,850,262,670,120,59,135,216,298,595,686,853,287,667,477,273,371,198,220,735,617,871,446,305,730,819,773,405,357,217,102,335,796,706,32,750,955,266,90,395,892,830,230,910,753,197,721,751,973,44,899,890,545,941,598,877,754,561,464,15,775,802,93,373,289,78,628,897,758,652,862,246,352,18,536,543,797,106,448,672,520,285,703,614,876,140,557,811,270,497,73,274,343,596,42,791,943,206,858,229,69,989,782,736,774,744,66,865,116,755,789,964,524,665,327,893,847,476,568,104,231,928,546,580,397,377,312,988,114,625,131,207,284,983,234,779,863,901,840,386,134,330,698,743,927,544,653,31,351,292,560,898,259,687,925,280,434,851,803,167,905,869,12,918,844,457,837,781,452,998,517,161,616,718,356,453,584,186,913,839,212,531,340,404,251,729,624,738,355,33,95,526,777,306,883,242,3,528,458,57,593,62,203,387,481,541,843,934,808,502,427,488,904,401,597,393,256,154,278,809,511,530,150,353,348,924,269,139,794,35,936,317,968,192,788,700,907,258,325,571,748,328,592,945,308,879,938,249,133,523,441,121,909,406,577,344,187,376,990,857,651,45,267,991,623,823,145,579,696,674,144,818,622,48,785,956,527,209,573,210,302,951,939,113,445,954,525,975,125,439,65,465,293,719,868,38,550,316,435,248,852,821,162,170,324,558,947,14,866,559,654,815,294,239,225,77,514,191,290,440,432,494,662,633,646,661,867,461,119,380,110,320,247,151,322,647,370,668,694,456,639,605,812,984,426,886,172,50,606,422,522,142,799,147,416,36,609,219,96,88,547,697,141,966,717,778,155,491,297,237,995,152,976,199,115,423,752,671,817,179,551,688,920,749,318,902,759,534,399,409,64,540,602,250,350,827,658,806,971,978,710,915,780,283,442,981,737,415,300,836,585,630,63,689,410,835,935,529,261,365,882,309,342,908,677,583,629,770,825,194,272,433,84,612,660,443,894,467,394,833,58,67,227,498,101,987,640,891,829,914,930,709,982,953,761,970,822,731,732,47,338,958,418,468,716,336,473,588,701,339,177,40,610,190,188,767,834,136,793,374,916,75,238,896,449,369,156,599,826,424,184,589,641,478,236,260,644,959,695,566,321,500,578,13,153,463,621,485,11,180,656,763,99,326,396,235,969,489,875,420,756,684,55,562,334,903,683,820,411,926,727,169,765,842,704,384,681,185,56,193,574,379,408,575,963,419,403,74,532,27,158,451,634,870,615,607,884,946,814,304,594,786,666,764,118,725,631,34,860,7,123,996,739,900,333,323,1,91,389,564,962,949,942,985,70,173,117,282,382,255,979,692,766,537,940,331,146,832,232,728,873,143,9,450,21,967,277,787,81,960,816,223,645,108,37,932,124,715,974,992,111,100,368,398,563,46,363,224,745,483,281,347,792,122,30,917,82,484,608,367,693,52,54,993,734,885,171,159,952,41,760,636,929,392,160,407,436,429,807,711,699,591,157,746,205,507,486,68,948,972,469,0,548,381,555,20,798,678,977,112,253,682,126,362,937,276,275,509,784,175,378,86,319,4,49,586,714,430,208,742,618,872,627,690,181,533,358,60,887,720,895,888,228,707,204,89,980,881,864,26,295,923,587,462,372,965,849,986,303,601,831,315,402,472,2,310,539,105,576,400,676,459,103,669,856,80,311,957,375,919,444,168,264,428,383,271,510,466,345,747,495,482,43,855,741,771,570,535,291,906,307,233,538,768,772,182,364,87,582,28,218,5,479,214,590,861,642,414,496,921,603,762,412,713,999,724,163,889,447,195,94,795,85,503,604,679,518,475,178,127,226,19,72,552,252,878,421,712,854,911,16,846,23,296,790,474,650,515,643,813,313,620,83,705,471,98,221,655,506,848,165,254,565,635,196,29,201,265,931,613,824,61,10,726,680,632,438,490,332,454,757,301,164,685,480,626,149,211,241,385,994,109,611,521,508,648,366,516,417,299,8,166,97,346,542,76,501,659,213,769,244,245,425,263,286,492,222,556,24,845,663,487,519,431,569,288,997,174,810,460,202,455,512,329,567,337,708,961,53,137]","arrowleft","","true","0","9","200","1000","[""0023_N1000_K0200_CLIQUE"",""0016_N1000_K0200_NOCLIQUE""]"
"","","","","","audio-keyboard-response","85","217679","0.0-57.0-0.0-1.0","","null","audio_feedback/right/coin01.mp3","null","","","","","0","9","200","1000","[""0023_N1000_K0200_CLIQUE"",""0016_N1000_K0200_NOCLIQUE""]"
"","","","","","canvas-keyboard-response","86","222649","0.0-58.0-0.0-0.0","","2586",""," ","[618,471,598,174,332,149,586,459,84,760,637,954,122,468,411,352,515,333,862,628,210,349,143,721,74,648,660,421,26,616,653,96,575,439,783,24,404,60,832,133,360,105,381,185,830,99,458,769,736,315,763,227,310,163,331,893,829,297,350,905,704,494,106,990,801,461,121,453,373,919,276,911,686,689,318,302,542,816,308,65,437,928,823,920,596,403,486,158,595,940,766,576,77,731,432,913,517,269,366,651,348,939,867,160,743,860,8,985,934,283,444,640,410,85,293,774,243,436,226,784,744,59,824,75,544,802,712,540,89,47,877,316,23,341,684,447,671,873,95,250,831,734,531,776,626,503,103,307,897,880,729,454,178,910,708,915,655,53,144,957,467,511,825,677,922,128,70,500,460,356,781,114,857,169,334,948,435,661,899,728,852,883,582,497,647,565,46,685,901,998,754,455,631,369,519,279,216,886,152,176,597,914,666,842,184,619,791,235,572,844,392,606,357,601,608,251,615,305,566,351,228,217,711,304,97,799,301,508,142,13,949,510,836,249,42,155,345,937,282,298,562,529,981,202,22,574,37,206,263,965,398,281,25,364,650,179,687,314,362,479,501,746,463,755,669,167,416,868,64,821,676,157,679,295,577,19,135,789,131,248,604,543,639,66,944,504,768,426,971,4,296,93,630,838,663,796,730,547,668,534,745,656,377,717,428,389,673,707,667,31,354,449,20,782,424,690,706,130,526,898,382,213,521,691,292,779,200,378,513,156,664,415,336,91,98,195,866,384,6,484,365,530,594,908,987,580,337,294,358,110,943,986,874,222,591,733,5,137,472,611,553,11,173,960,732,147,481,613,788,409,43,375,260,803,55,793,125,3,792,726,748,374,605,476,480,589,391,767,900,713,702,958,14,642,762,935,493,34,522,714,683,780,396,390,342,363,773,705,994,18,772,119,196,999,203,477,507,849,370,161,633,557,495,888,871,995,150,422,535,50,452,151,186,809,414,124,162,1,932,635,904,569,233,238,855,583,603,837,329,136,693,326,223,761,930,234,191,848,859,10,319,140,585,976,489,610,67,16,255,201,451,890,819,239,538,811,254,80,567,751,220,313,681,270,722,29,246,457,126,419,78,225,752,272,44,405,563,590,38,680,555,518,395,36,759,164,537,380,287,980,891,961,288,947,168,974,527,579,996,881,833,989,670,516,845,218,456,808,237,62,145,858,159,938,242,698,372,539,492,82,462,473,638,280,423,258,244,88,959,665,850,953,52,741,921,629,700,207,892,427,545,499,92,902,240,322,561,51,247,488,49,338,138,978,469,289,863,367,129,625,520,719,682,716,587,256,498,771,171,430,968,54,988,79,284,554,165,420,835,154,879,701,945,602,794,28,257,757,172,361,33,464,181,353,984,229,620,560,548,73,180,15,750,443,330,116,524,546,465,311,552,102,440,68,347,614,878,720,300,355,828,807,564,273,790,785,182,490,847,979,609,756,558,846,183,672,470,982,505,177,592,192,927,442,198,209,232,17,777,141,923,309,113,906,86,924,541,810,344,509,466,926,645,112,40,588,401,514,688,400,854,56,120,584,818,483,696,211,139,570,261,115,101,45,865,2,556,328,339,431,797,214,624,533,964,649,817,675,402,450,814,652,323,739,856,153,252,644,320,72,916,747,327,291,658,869,798,528,632,205,441,903,76,438,933,697,694,617,434,806,699,770,715,822,204,753,111,622,826,267,376,749,764,425,991,303,299,482,643,21,834,506,175,61,123,804,368,264,941,917,894,399,875,393,800,271,41,343,219,212,87,388,536,394,853,485,657,973,758,48,523,371,659,549,478,208,387,578,359,268,39,931,0,956,710,703,412,718,786,9,955,662,27,429,35,286,306,231,418,487,992,997,929,581,695,966,215,475,970,735,166,335,742,889,199,571,108,641,474,525,532,317,805,259,765,69,963,972,189,952,725,612,678,408,90,936,221,884,385,607,909,634,413,7,397,775,918,993,262,787,83,740,840,312,58,946,512,325,654,236,967,117,253,448,324,795,627,983,723,969,71,737,827,864,127,623,975,872,12,290,951,870,876,621,407,109,496,94,559,386,134,942,132,104,895,406,851,861,674,907,887,573,600,197,146,738,925,383,275,194,188,187,81,962,912,839,882,278,950,550,266,321,551,446,812,636,502,170,193,417,692,813,230,727,30,190,285,445,245,241,274,599,885,346,224,778,63,568,896,815,843,646,340,433,977,32,820,265,379,724,57,709,107,100,841,593,148,277,118,491]","arrowleft","","","0","10","183","1000","[""0058_N1000_K0183_CLIQUE"",""0009_N1000_K0183_NOCLIQUE""]"
"","","","","","audio-keyboard-response","87","223801","0.0-58.0-0.0-1.0","","null","audio_feedback/shuffles/shuffle01.mp3","null","","","","","0","10","183","1000","[""0058_N1000_K0183_CLIQUE"",""0009_N1000_K0183_NOCLIQUE""]"
"","","","","","canvas-keyboard-response","88","226749","0.0-58.1-0.1-0.1","","8","","arrowleft","[937,46,239,795,812,365,89,185,24,190,938,759,564,754,183,125,25,309,944,340,592,416,78,631,202,6,992,958,929,50,623,467,934,274,350,761,881,192,626,973,116,342,413,677,611,303,306,700,957,177,519,843,632,829,591,851,828,397,19,708,907,738,282,912,254,236,444,596,210,965,415,47,62,539,705,230,405,361,782,184,130,371,936,489,182,750,386,716,159,162,345,4,911,9,434,54,304,111,910,558,730,718,621,865,275,441,569,356,188,690,964,63,15,260,319,837,417,329,378,543,999,310,31,577,245,246,258,504,338,845,820,133,279,988,152,574,403,194,699,703,160,521,456,235,555,237,216,799,682,106,172,610,445,147,928,545,589,985,541,499,654,651,283,742,847,663,980,615,567,715,643,336,277,414,495,465,440,860,898,580,915,68,891,273,284,39,385,128,5,727,951,789,978,150,693,154,38,864,724,636,438,391,831,181,140,17,432,645,774,819,801,861,549,550,227,811,826,425,13,153,37,222,680,169,770,785,396,735,141,593,233,325,144,213,885,695,368,209,482,940,412,685,375,892,840,953,932,616,168,563,458,573,768,839,863,827,635,605,518,886,507,836,418,280,107,427,428,393,248,443,533,286,644,749,689,252,737,326,900,156,363,871,752,804,262,594,875,450,475,373,137,884,81,670,311,179,299,94,658,502,84,121,760,51,660,360,377,694,854,728,633,83,281,10,784,242,583,890,719,531,343,662,295,671,70,498,263,77,408,707,492,334,741,483,833,461,603,736,996,379,278,674,846,178,511,292,743,271,65,123,151,572,646,471,769,873,778,43,748,634,889,841,243,527,745,174,906,777,704,852,370,404,858,241,34,514,712,97,855,756,206,896,903,267,339,816,149,376,407,317,607,305,347,637,390,731,112,76,494,346,131,758,866,327,722,127,614,642,113,517,476,170,220,565,856,401,676,578,602,753,976,211,30,67,725,28,963,908,933,392,473,117,560,91,523,947,734,653,328,217,935,584,648,364,424,983,491,698,301,919,697,808,225,668,877,358,538,257,857,255,198,218,430,581,268,431,219,145,459,21,921,56,993,103,806,289,726,500,664,3,556,351,240,250,510,399,810,817,714,930,766,320,997,925,687,989,463,923,618,462,641,805,655,842,638,966,838,870,1,657,138,767,941,650,720,901,815,918,588,887,787,984,384,893,205,261,134,313,733,696,612,353,200,575,173,122,830,576,786,706,201,771,480,649,490,542,640,422,132,420,666,49,909,546,298,598,272,691,337,307,544,269,882,362,110,779,16,878,48,104,585,582,702,794,139,253,791,143,357,118,191,974,294,883,59,359,751,29,75,95,568,721,90,469,300,620,832,562,821,790,308,977,803,251,619,995,288,566,86,862,557,419,899,763,579,58,486,204,970,530,316,447,496,788,96,868,968,586,487,479,943,20,369,318,18,93,166,256,954,439,512,747,208,291,423,802,14,244,161,8,686,509,553,879,98,72,436,950,590,341,601,157,834,189,659,196,331,946,739,124,967,800,44,437,688,914,115,667,92,515,814,994,520,809,532,652,100,64,129,2,524,982,119,647,429,625,11,627,904,902,710,394,672,675,945,402,142,99,374,468,813,105,979,87,238,681,60,927,344,41,822,302,701,793,74,488,755,27,920,324,57,955,949,214,22,551,628,665,503,0,457,455,516,639,959,446,45,264,797,367,148,355,335,120,913,276,52,349,231,535,464,986,669,223,825,723,293,287,599,387,135,146,869,931,764,732,265,108,158,537,526,952,729,448,684,528,186,971,617,508,421,587,42,926,114,505,35,228,613,454,372,409,221,604,534,850,203,775,905,33,322,136,88,53,571,692,679,312,798,595,259,290,609,171,247,226,7,323,849,762,470,969,477,807,314,395,484,916,388,796,656,352,180,163,998,561,757,570,36,249,673,608,193,400,383,426,525,12,506,199,410,466,296,711,232,109,987,746,872,452,332,975,606,82,709,874,824,478,818,32,382,683,961,285,197,948,547,453,493,442,781,924,389,411,780,229,66,73,876,449,792,990,744,622,939,853,835,894,85,540,406,321,101,380,80,126,481,460,956,69,844,765,451,167,960,922,552,867,234,859,536,333,559,207,981,297,195,354,554,897,55,972,433,102,895,26,165,776,266,678,155,501,485,783,597,624,366,522,888,315,176,600,187,330,348,175,497,270,398,474,23,212,71,917,79,942,772,548,991,880,713,717,435,215,529,381,513,848,773,740,61,629,661,40,962,472,224,164,630,823]","arrowleft","","true","0","10","183","1000","[""0058_N1000_K0183_CLIQUE"",""0009_N1000_K0183_NOCLIQUE""]"
"","","","","","audio-keyboard-response","89","227747","0.0-58.1-0.1-1.1","","null","audio_feedback/right/coin01.mp3","null","","","","","0","10","183","1000","[""0058_N1000_K0183_CLIQUE"",""0009_N1000_K0183_NOCLIQUE""]"
"","","","","","canvas-keyboard-response","90","230449","0.0-59.0-0.0-0.0","","12","","arrowleft","[449,540,621,750,742,673,72,745,196,857,191,462,216,667,93,246,996,758,668,25,598,571,880,28,816,389,560,133,665,467,503,813,372,327,442,410,4,664,447,741,978,124,752,549,199,356,417,308,351,10,970,765,275,431,309,245,75,860,844,627,975,991,793,893,776,739,483,740,231,156,630,172,781,608,411,971,363,643,567,197,205,330,846,288,117,380,655,770,802,659,285,834,287,788,182,492,350,721,521,470,910,19,319,495,997,935,688,333,759,88,522,587,603,584,779,463,674,57,613,458,47,896,697,433,922,122,543,95,81,40,230,612,972,262,445,114,810,228,131,639,533,452,242,318,217,751,471,764,29,950,798,590,900,84,30,112,945,509,892,949,474,895,121,879,424,237,611,314,663,5,302,980,475,527,747,850,575,358,817,407,89,797,669,103,387,704,490,506,198,50,34,343,144,368,763,33,214,236,730,606,552,455,188,239,428,23,828,544,369,707,722,927,508,68,150,595,367,632,969,359,414,812,838,497,128,175,940,207,362,583,1,562,732,307,602,63,306,83,459,297,511,526,271,126,635,912,340,473,959,22,419,132,939,920,294,803,450,69,130,938,18,469,514,993,404,822,897,591,315,634,253,97,381,994,615,278,129,811,986,875,256,167,171,60,79,936,582,769,692,944,711,160,347,184,284,76,546,264,836,104,983,861,870,486,824,923,382,616,106,726,325,292,644,61,656,761,355,145,464,951,265,468,353,556,149,985,687,140,2,173,679,881,547,223,477,725,310,105,954,386,432,178,924,744,488,729,320,573,889,269,837,738,675,215,500,617,80,345,855,409,801,166,143,734,493,238,430,541,701,691,208,426,338,600,717,478,9,767,263,479,557,849,364,891,579,840,336,520,999,91,636,580,799,914,825,65,165,212,614,513,67,523,694,491,961,229,453,35,436,101,51,203,375,628,418,443,551,266,440,268,113,826,279,642,921,484,512,200,772,685,662,672,845,762,906,833,502,869,866,210,859,108,724,979,151,847,157,930,531,843,536,705,570,710,937,990,755,120,746,399,176,162,645,683,953,646,206,211,565,737,952,932,14,877,332,977,823,20,545,532,785,221,164,501,680,299,941,530,456,331,54,783,403,219,718,578,585,406,329,555,12,190,56,395,92,886,186,125,274,194,334,558,398,400,686,434,87,73,177,135,917,708,357,82,44,719,723,965,820,397,736,255,756,26,890,335,648,712,795,142,586,295,396,981,814,504,444,301,609,43,987,731,821,626,55,601,313,792,784,538,361,115,460,376,225,71,819,542,777,568,15,782,919,607,887,234,260,728,654,58,257,588,773,393,252,134,661,283,70,305,348,966,926,6,695,696,446,863,111,498,918,11,925,967,733,251,529,154,254,405,201,472,652,933,454,100,158,690,123,435,379,916,968,507,775,289,326,222,757,528,539,148,163,259,232,412,312,808,576,885,865,827,928,213,706,794,141,806,589,901,518,534,127,713,657,261,962,90,572,316,413,898,360,394,280,852,735,858,339,682,138,438,569,422,677,581,323,832,671,992,842,107,408,631,45,247,519,183,392,24,300,174,429,554,943,328,146,17,78,623,658,161,577,976,189,716,276,839,649,341,574,566,622,77,321,699,620,535,851,118,195,550,346,958,698,489,277,984,441,510,934,800,202,882,476,425,378,597,155,559,317,98,848,778,809,352,727,249,525,401,709,625,193,749,86,605,296,466,956,31,272,258,960,48,907,720,110,637,638,864,159,796,298,714,390,243,415,647,593,270,610,180,385,905,366,791,494,170,871,46,594,670,818,342,371,774,344,248,641,427,291,451,790,465,883,964,281,21,52,53,235,700,209,13,619,62,748,179,829,948,553,59,596,517,676,119,192,867,461,303,995,902,931,37,831,227,324,854,693,715,0,872,505,702,267,988,496,49,109,618,286,561,402,903,651,181,322,416,153,786,942,653,373,754,147,989,241,85,929,370,853,982,383,650,815,689,876,38,973,516,807,904,169,599,365,388,64,629,226,604,998,354,743,515,66,374,805,974,152,187,437,640,684,548,282,874,27,524,592,787,139,835,448,273,224,633,485,804,915,240,957,250,384,233,481,888,955,884,563,439,185,391,136,856,420,564,290,830,841,911,102,487,947,862,946,168,678,482,204,8,480,337,760,218,244,624,766,894,74,41,220,42,116,537,873,7,771,660,913,99,96,423,39,789,908,377,36,16,311,753,681,780,304,666,293,32,137,768,878,899,94,3,499,349,457,868,703,909,421,963]","arrowright","","false","0","11","183","1000","[""0010_N1000_K0183_NOCLIQUE"",""0013_N1000_K0183_CLIQUE""]"
"","","","","","audio-keyboard-response","91","231481","0.0-59.0-0.0-1.0","","null","audio_feedback/wrong/error01.mp3","null","","","","","0","11","183","1000","[""0010_N1000_K0183_NOCLIQUE"",""0013_N1000_K0183_CLIQUE""]"
"","","","","","canvas-keyboard-response","92","233955","0.0-60.0-0.0-0.0","","11","","arrowright","[824,221,296,858,801,44,908,245,428,606,816,872,580,213,896,643,563,207,572,58,756,188,825,23,65,281,647,823,361,1,457,359,926,639,156,511,148,895,863,49,46,774,208,331,727,911,280,992,535,984,578,668,746,449,107,585,655,973,532,857,424,943,565,922,790,267,904,427,611,793,38,547,684,238,393,650,599,189,731,6,960,211,54,513,890,406,425,722,788,247,400,73,472,396,594,540,27,15,385,576,72,157,263,16,575,833,815,136,692,160,62,375,416,525,125,20,859,55,892,2,185,353,642,257,867,701,870,533,649,8,320,367,436,395,440,293,709,379,389,550,166,316,693,840,128,79,874,183,233,321,495,161,435,875,749,524,590,63,924,691,528,786,883,787,538,609,223,118,512,559,282,496,980,523,61,712,195,202,641,141,954,685,109,741,287,901,937,318,151,660,408,485,209,706,12,942,640,273,366,229,645,232,985,702,750,860,43,735,502,491,570,47,14,851,489,399,988,958,837,945,761,28,998,165,669,900,291,808,453,554,970,357,704,48,993,621,809,844,610,328,577,589,317,777,681,446,546,820,785,397,85,553,114,695,718,88,239,504,499,707,244,956,153,508,698,91,39,356,115,548,391,549,663,719,791,881,803,682,608,411,76,569,728,965,402,913,776,89,430,886,438,283,670,412,740,497,131,503,123,733,556,836,216,633,711,891,543,110,354,545,348,568,729,433,30,459,536,124,581,814,364,694,162,916,99,276,17,212,347,659,738,358,268,441,423,382,404,812,804,522,4,829,426,51,582,203,492,81,796,398,625,370,274,169,938,94,827,182,716,345,289,120,951,288,933,627,137,194,380,67,931,390,111,126,401,71,312,526,683,368,251,197,336,800,604,769,372,26,11,687,878,133,744,19,807,228,623,629,480,662,782,22,490,854,771,417,84,454,852,154,362,798,975,190,450,637,899,337,10,5,759,392,551,713,587,340,838,439,920,308,968,555,9,236,697,306,914,991,7,925,953,751,811,723,463,0,167,301,603,487,225,950,638,334,961,240,584,344,64,130,178,726,224,845,144,521,349,237,295,903,147,138,309,622,596,258,618,743,168,518,477,222,217,475,531,646,90,765,772,784,848,832,422,879,343,95,884,272,509,613,78,186,928,830,714,384,583,887,990,262,865,541,460,986,966,688,636,600,278,758,269,371,705,595,264,181,271,592,981,198,265,31,452,515,605,626,846,944,409,732,434,941,266,469,760,458,615,256,206,290,876,560,284,658,677,445,310,145,624,752,332,562,215,724,792,720,40,853,260,246,696,699,856,593,250,841,948,962,451,13,127,822,674,795,80,299,152,305,730,92,631,227,868,466,967,628,917,897,140,882,850,313,778,686,303,34,849,987,715,323,921,493,150,810,235,352,762,519,632,106,574,415,132,529,648,360,50,342,407,665,478,187,171,116,488,912,325,999,117,159,783,476,620,680,634,486,155,673,333,656,983,708,143,976,87,710,447,172,53,971,218,494,464,204,657,567,279,41,689,666,149,972,501,514,465,959,789,864,630,969,690,173,483,834,654,781,25,651,192,482,378,927,907,763,394,219,794,255,437,661,779,98,561,101,286,418,96,748,467,319,753,21,259,805,377,940,877,298,510,821,996,703,935,100,579,530,24,957,139,955,444,906,601,766,977,747,163,516,300,929,419,542,773,374,537,176,294,456,231,520,500,964,506,835,571,737,612,414,326,315,635,880,817,341,905,105,275,598,52,302,93,678,270,952,700,481,909,386,474,974,142,616,387,527,242,861,667,177,947,473,174,591,135,664,552,755,764,949,544,742,175,767,989,410,739,261,866,196,614,894,573,982,619,995,70,104,745,871,403,498,83,936,327,754,35,18,564,557,205,33,346,831,653,934,59,277,813,893,112,978,191,113,37,588,979,842,455,369,421,56,652,184,602,226,103,60,675,69,869,376,329,946,839,36,885,249,381,220,322,66,179,471,413,994,644,134,819,200,119,534,963,363,355,158,918,517,170,676,932,462,307,558,285,539,86,898,429,717,324,180,122,339,672,234,292,797,919,129,108,75,383,505,29,586,930,311,721,82,484,57,297,725,388,77,45,507,671,214,826,97,855,939,468,847,461,146,443,768,679,193,597,736,479,802,902,431,888,74,405,915,373,241,314,828,806,889,775,330,210,350,230,818,910,734,757,365,923,3,42,252,304,335,607,799,253,32,351,780,121,997,254,338,420,470,68,102,243,248,432,770,566,617,199,164,862,201,843,448,873,442]","arrowleft","","false","0","12","167","1000","[""0069_N1000_K0167_CLIQUE"",""0035_N1000_K0167_NOCLIQUE""]"
"","","","","","audio-keyboard-response","93","234958","0.0-60.0-0.0-1.0","","null","audio_feedback/wrong/error01.mp3","null","","","","","0","12","167","1000","[""0069_N1000_K0167_CLIQUE"",""0035_N1000_K0167_NOCLIQUE""]"
"","","","","","canvas-keyboard-response","94","238191","0.0-61.0-0.0-0.0","","7","","arrowleft","[853,895,920,235,63,532,3,838,508,108,926,723,45,40,386,557,395,347,644,452,518,769,62,635,923,693,370,744,90,775,32,256,843,51,129,686,307,200,690,269,21,65,907,725,249,214,75,170,785,638,647,944,59,827,861,134,72,427,218,814,575,74,213,478,245,752,613,759,159,823,416,407,110,295,429,970,11,695,399,237,967,376,94,385,846,179,560,444,743,596,80,919,875,680,627,271,668,280,207,149,194,120,79,677,296,4,91,991,712,768,507,868,122,871,904,404,758,795,298,259,41,509,234,791,585,450,987,174,577,38,517,447,703,356,958,115,389,709,783,870,942,537,539,150,816,717,976,512,659,602,915,93,329,231,287,947,622,989,749,409,197,624,208,943,553,913,721,929,121,414,440,733,813,955,315,15,230,974,405,464,239,153,555,50,513,856,554,242,801,788,804,455,980,339,223,331,48,694,105,47,720,402,643,755,818,471,595,905,778,771,521,322,76,477,61,681,750,344,143,679,623,953,187,201,698,34,445,566,228,962,949,727,864,934,253,317,948,424,579,884,266,37,60,898,865,301,656,431,461,419,387,688,103,893,637,735,583,825,97,176,49,181,930,141,492,24,35,133,826,831,422,493,992,968,574,300,857,713,675,446,82,369,773,175,673,611,666,971,310,653,353,54,937,654,81,488,18,549,892,380,746,238,481,699,28,372,183,701,540,99,724,443,917,406,337,125,10,852,482,811,188,169,983,565,806,924,964,43,283,789,751,590,957,996,945,46,84,916,472,14,697,1,587,787,658,168,580,581,456,878,782,866,13,859,896,715,475,268,799,451,442,815,519,515,965,784,327,180,198,107,36,70,365,124,522,805,219,792,765,119,812,258,796,704,890,545,152,531,882,306,390,154,66,421,910,822,847,192,899,561,9,229,148,383,126,453,821,588,641,486,541,584,23,563,766,199,17,979,330,400,52,516,770,891,977,862,437,764,578,841,391,586,203,848,591,670,247,737,842,215,476,368,696,985,798,130,85,651,217,53,137,411,146,767,381,334,351,494,999,621,576,460,982,605,921,901,669,377,636,77,358,185,382,155,33,573,279,966,83,325,87,286,564,466,552,969,954,800,973,819,96,762,682,433,569,56,161,779,86,349,420,348,128,182,918,551,912,326,652,718,601,747,633,683,319,678,984,303,163,360,526,2,189,906,20,251,111,439,533,232,359,975,961,106,373,285,593,467,572,291,685,186,897,412,71,454,209,58,89,160,270,634,619,528,363,618,582,543,761,547,432,952,607,384,426,936,629,158,73,88,731,98,889,100,742,511,328,661,722,932,276,355,941,284,131,626,430,272,210,567,728,212,534,434,527,449,69,646,753,740,132,78,817,112,781,27,691,972,940,625,252,612,810,502,469,546,570,151,839,0,485,988,173,524,760,542,849,603,195,514,401,490,790,963,29,995,388,951,320,726,6,413,692,877,190,911,177,837,178,667,30,202,184,631,324,499,802,830,241,702,288,850,244,950,900,571,506,221,468,748,118,615,398,127,375,191,776,302,632,562,538,705,763,956,780,505,470,64,205,462,883,885,614,620,902,674,293,617,261,616,297,880,278,104,630,734,354,558,290,863,243,881,292,299,275,281,211,786,757,162,933,7,774,888,939,371,745,504,807,362,257,423,25,946,254,960,142,136,8,660,165,147,338,438,484,225,172,166,708,308,497,282,16,262,289,706,990,836,610,67,500,687,797,903,663,835,321,350,313,568,227,236,809,873,793,397,448,12,592,109,157,684,609,332,922,649,772,854,57,364,672,833,925,501,851,993,479,523,171,594,316,138,483,600,676,274,167,114,894,844,255,264,267,716,458,729,832,436,309,597,26,361,639,260,642,335,248,323,736,860,628,68,828,997,113,343,428,44,418,544,265,994,312,714,548,738,840,224,55,550,655,410,415,872,886,732,927,503,931,341,491,495,463,794,556,164,342,379,392,459,645,598,5,193,408,707,536,123,102,834,318,824,496,304,457,277,858,473,662,640,196,869,530,435,589,396,42,474,352,487,525,700,465,599,777,608,336,140,756,498,981,19,294,240,378,135,606,719,314,393,22,250,648,520,741,808,657,333,867,394,117,710,604,535,671,246,829,914,233,803,480,374,340,650,311,730,116,887,935,739,305,845,367,711,998,664,139,92,101,204,156,95,908,441,938,986,366,855,529,417,216,959,226,874,754,876,403,665,909,559,689,144,879,31,346,145,345,273,220,510,425,263,820,222,489,357,928,206,978,39]","arrowright","","false","0","13","167","1000","[""0056_N1000_K0167_NOCLIQUE"",""0003_N1000_K0167_CLIQUE""]"
"","","","","","audio-keyboard-response","95","239182","0.0-61.0-0.0-1.0","","null","audio_feedback/wrong/error01.mp3","null","","","","","0","13","167","1000","[""0056_N1000_K0167_NOCLIQUE"",""0003_N1000_K0167_CLIQUE""]"
"","","","","","canvas-keyboard-response","96","242425","0.0-62.0-0.0-0.0","","11","","arrowright","[447,719,65,250,47,620,9,281,267,356,399,292,228,851,51,556,106,174,599,479,569,300,181,392,667,172,235,814,553,694,83,952,913,839,804,517,486,28,500,310,934,953,983,76,430,878,640,298,550,114,561,672,943,89,810,710,520,428,899,230,700,954,416,178,890,63,819,617,129,16,154,507,542,646,415,740,998,276,739,424,241,93,214,284,24,226,974,337,273,258,49,495,111,315,922,892,481,543,574,836,467,657,128,893,247,148,799,751,856,602,744,803,713,17,650,352,465,421,585,365,125,773,40,364,609,52,306,823,805,35,4,444,662,607,629,521,184,322,397,388,398,504,357,560,955,44,70,999,895,295,976,501,189,876,394,97,136,653,138,562,374,557,594,957,688,881,180,547,27,948,776,242,879,986,265,385,167,862,671,555,15,526,807,73,641,778,502,262,445,425,730,282,706,676,568,595,869,967,796,582,355,716,238,633,158,142,380,403,612,383,257,597,485,964,840,456,26,990,771,452,115,222,496,797,144,254,989,405,253,443,619,584,92,31,494,139,850,884,91,6,373,643,426,790,852,919,995,131,984,252,427,209,462,29,98,236,431,691,519,112,530,515,418,321,389,248,940,156,435,958,244,846,277,187,912,652,845,541,104,656,639,793,43,554,107,305,423,683,334,343,327,552,709,177,987,434,215,155,914,208,259,304,767,198,596,693,266,297,618,727,461,540,861,130,335,71,191,419,396,482,559,369,21,900,378,420,780,7,720,782,491,379,61,742,478,5,732,971,11,323,307,875,608,185,407,454,614,432,616,216,759,756,109,137,56,950,366,551,749,271,537,529,581,384,535,927,440,784,765,477,278,966,686,347,904,506,311,571,412,644,523,45,606,484,630,832,801,725,707,143,702,536,813,826,95,583,203,907,490,704,763,655,192,269,659,733,649,811,601,769,909,965,792,264,546,157,395,176,231,622,664,146,124,183,179,225,738,592,268,459,48,223,68,219,233,473,149,320,703,670,122,579,926,382,85,151,376,959,572,332,708,858,794,117,675,868,636,505,718,857,499,100,313,165,414,532,358,341,831,789,870,593,980,319,303,291,942,642,760,842,766,133,489,329,949,764,342,457,761,844,666,469,121,859,669,920,171,860,439,587,279,853,54,827,755,833,0,140,62,339,437,906,872,119,701,687,680,316,932,910,754,239,600,712,400,41,182,243,348,660,802,835,682,969,406,126,261,57,468,578,775,19,977,293,513,229,588,930,96,272,460,525,263,690,779,94,770,531,946,545,985,326,134,674,30,677,466,480,638,333,567,190,809,367,791,372,127,941,150,386,518,361,800,658,947,42,816,923,645,475,8,255,880,317,841,290,410,359,668,448,750,346,463,772,211,821,898,944,60,563,32,274,624,961,538,509,285,820,72,788,837,451,812,663,511,110,408,193,102,141,824,88,13,224,697,401,982,195,902,237,854,123,153,873,871,774,46,340,632,381,249,514,544,324,937,33,705,580,10,829,834,227,391,830,429,245,411,50,166,589,199,848,472,84,362,905,615,38,931,221,14,613,785,188,75,363,894,818,118,758,798,116,992,79,404,251,735,371,603,721,512,887,972,717,103,299,433,453,698,956,762,726,577,487,58,752,169,610,728,897,200,296,147,438,101,699,997,806,207,684,591,661,689,723,353,748,194,516,120,815,449,488,471,637,283,828,476,625,328,86,402,338,731,213,746,757,164,524,747,145,464,417,533,648,605,455,289,586,921,891,929,787,916,390,12,917,849,393,777,218,522,847,206,135,570,903,202,450,105,422,933,220,217,745,87,855,503,344,483,409,928,825,528,534,336,885,527,714,345,78,888,866,280,808,724,631,22,673,375,918,786,970,743,113,64,159,566,314,882,59,74,77,436,628,896,309,497,651,973,80,627,996,924,863,696,951,387,354,565,994,287,294,413,874,685,201,647,442,2,66,260,963,377,692,741,368,493,737,99,939,318,711,604,330,867,598,548,492,865,161,67,132,991,196,654,325,308,935,25,945,162,678,753,240,163,975,3,715,590,39,23,736,446,988,349,621,470,681,968,864,212,302,539,234,734,665,783,360,576,197,173,90,768,152,160,843,886,889,81,350,34,351,695,232,936,626,205,331,573,981,510,635,108,37,210,979,908,498,611,549,962,286,925,978,901,623,838,795,69,564,729,877,1,938,288,82,911,634,370,204,312,256,246,822,20,575,960,175,915,301,458,53,36,679,170,781,275,722,883,18,558,186,168,55,474,993,508,270,817,441]","arrowright","","true","0","14","150","1000","[""0052_N1000_K0150_NOCLIQUE"",""0094_N1000_K0150_CLIQUE""]"
"","","","","","audio-keyboard-response","97","243428","0.0-62.0-0.0-1.0","","null","audio_feedback/right/coin01.mp3","null","","","","","0","14","150","1000","[""0052_N1000_K0150_NOCLIQUE"",""0094_N1000_K0150_CLIQUE""]"
"","","","","","canvas-keyboard-response","98","247183","0.0-63.0-0.0-0.0","","1032","","arrowleft","[185,838,694,90,306,92,215,79,44,921,710,249,645,256,244,671,556,272,567,782,675,767,876,905,788,559,255,144,285,336,291,920,914,118,983,693,182,658,547,339,290,390,465,734,985,415,786,446,832,437,563,946,662,331,545,605,20,929,368,116,463,587,928,228,325,531,865,987,383,303,813,761,6,364,94,214,742,307,849,490,791,179,273,854,178,67,157,760,879,958,530,736,14,721,385,461,35,25,670,540,300,955,201,576,765,504,491,365,274,386,199,806,352,82,941,516,391,158,133,213,651,275,744,508,964,680,935,751,867,160,203,957,241,338,599,886,34,778,450,590,89,683,356,211,727,639,424,565,773,91,392,550,129,1,167,400,396,674,403,15,574,825,902,455,298,234,601,371,874,131,110,69,894,281,871,119,122,569,262,770,618,610,286,831,630,798,454,875,706,808,420,745,830,704,440,231,142,153,8,956,695,225,313,520,476,911,777,452,347,434,564,687,472,624,709,891,869,613,787,140,908,22,375,934,863,762,28,819,919,253,901,775,912,927,80,822,177,840,847,202,834,851,607,781,685,186,632,708,906,53,70,663,691,893,200,602,553,548,271,729,174,748,731,21,666,976,229,12,478,43,657,19,114,925,261,316,750,977,468,147,54,517,483,254,29,83,222,367,521,642,803,61,100,438,959,816,443,163,315,554,889,330,677,669,230,812,837,980,719,820,733,684,126,579,561,903,176,792,640,155,299,963,252,500,235,149,223,445,575,87,720,108,340,711,470,321,824,616,997,76,409,120,164,603,668,725,899,772,971,994,789,260,850,407,595,907,49,539,614,399,714,757,387,485,0,978,467,779,210,428,26,296,717,686,763,373,998,341,56,227,389,417,384,916,801,64,555,287,462,466,749,681,401,543,588,870,866,181,841,860,692,796,408,494,232,611,221,570,151,609,821,190,625,42,376,947,447,24,85,121,314,705,363,219,967,652,661,84,846,861,270,606,302,308,933,784,626,926,184,600,55,206,435,931,319,71,533,459,246,357,489,473,991,180,635,930,105,667,404,649,753,9,426,738,732,429,839,474,735,915,410,217,51,266,949,310,297,873,52,913,442,162,942,992,159,432,999,872,591,418,612,885,552,318,566,86,633,123,277,137,264,16,267,966,510,359,96,593,372,950,250,698,728,380,627,346,817,427,702,769,562,499,59,975,36,75,38,665,216,664,988,877,288,628,756,712,637,342,439,323,45,768,172,493,488,207,807,192,394,724,641,284,896,156,360,962,168,558,10,917,544,382,660,369,596,716,898,951,282,479,240,125,263,63,349,740,592,208,242,74,191,868,909,752,758,968,746,572,127,362,815,406,496,818,771,701,107,608,497,187,345,715,165,458,897,502,845,17,654,135,62,644,707,247,979,993,88,243,423,353,505,416,451,337,332,944,283,718,953,586,501,351,257,197,932,984,582,41,30,573,138,113,361,48,487,236,27,960,104,636,239,766,398,220,486,969,726,322,358,46,848,93,39,154,571,739,436,996,783,900,604,218,449,700,743,484,526,343,814,40,146,805,620,11,13,136,481,546,355,33,755,183,965,115,764,737,986,329,887,279,294,377,350,672,469,990,117,143,689,171,103,453,811,175,50,480,549,503,456,412,78,647,145,541,58,348,856,780,379,656,4,536,309,833,828,810,460,581,974,699,862,655,251,697,139,703,381,495,835,411,414,57,98,482,858,301,741,128,973,512,65,619,333,194,326,776,802,679,551,37,924,258,880,395,527,421,506,304,413,198,759,730,795,859,857,589,940,238,471,475,598,948,524,492,204,112,5,648,141,945,629,518,754,578,295,188,354,97,972,842,196,881,68,568,312,292,560,936,537,650,47,937,713,509,580,195,638,170,507,130,970,723,797,577,938,388,3,268,690,522,883,895,678,643,101,855,774,890,615,278,961,334,448,150,233,109,525,169,514,989,433,794,335,134,402,431,943,676,534,31,397,529,852,722,441,81,32,237,519,804,99,205,166,444,477,209,23,327,646,617,939,892,799,809,827,305,583,72,464,523,324,269,259,878,884,77,922,785,631,542,584,212,844,995,393,344,597,189,374,853,224,923,696,888,535,904,280,366,910,73,747,653,430,790,800,532,882,673,836,66,623,152,918,161,829,193,621,515,317,982,245,511,793,528,498,173,18,513,132,422,293,981,419,659,557,952,954,405,585,425,594,7,864,378,682,148,265,124,248,843,634,622,289,826,111,276,2,311,106,328,320,60,370,95,226,823,688,538,102,457]","arrowleft","","true","0","15","150","1000","[""0082_N1000_K0150_CLIQUE"",""0084_N1000_K0150_NOCLIQUE""]"
"","","","","","audio-keyboard-response","99","248185","0.0-63.0-0.0-1.0","","null","audio_feedback/right/coin01.mp3","null","","","","","0","15","150","1000","[""0082_N1000_K0150_CLIQUE"",""0084_N1000_K0150_NOCLIQUE""]"
"","","","","","canvas-keyboard-response","100","252912","0.0-64.0-0.0-0.0","","1826","","arrowleft","[216,482,382,988,801,743,28,204,618,225,173,486,491,429,348,384,766,670,745,951,726,445,611,277,425,946,310,414,18,739,371,341,135,21,956,140,718,511,512,968,142,196,941,58,582,370,891,645,632,56,93,88,365,123,846,194,38,996,461,873,462,638,143,311,691,454,515,288,459,700,264,642,586,983,664,598,419,730,360,327,838,677,422,460,95,593,381,510,634,109,668,302,770,145,802,355,787,61,108,903,678,714,542,878,238,564,910,612,984,132,789,757,791,721,661,59,77,872,301,387,662,841,197,768,751,886,484,504,998,130,55,776,599,864,991,905,756,151,483,231,853,503,230,819,854,69,568,42,236,654,715,207,430,122,27,254,139,749,320,182,443,602,242,736,685,87,470,345,535,647,259,457,219,244,203,965,157,321,159,152,885,52,949,720,306,318,952,439,70,953,813,549,366,764,19,451,415,548,777,170,94,322,436,261,129,675,126,330,437,928,380,469,985,881,626,305,67,423,281,246,710,199,774,574,759,527,53,247,280,241,257,974,767,979,635,221,293,972,367,442,557,155,424,473,869,731,391,982,186,505,890,650,694,507,707,540,220,754,840,206,572,695,147,775,276,576,959,825,644,562,843,964,633,20,826,448,837,528,672,986,587,37,539,737,119,605,249,296,934,228,450,282,177,621,427,212,405,978,935,65,835,631,817,472,639,233,800,744,190,506,536,386,286,554,335,566,476,252,850,105,402,627,948,496,97,524,738,518,81,323,597,239,43,584,431,919,816,830,581,224,829,977,646,874,628,298,915,788,970,896,435,349,750,401,412,96,479,571,656,344,603,278,253,23,960,434,793,932,894,925,30,324,596,73,937,368,79,671,531,883,614,798,35,331,120,98,339,875,733,116,433,292,867,851,889,26,54,250,417,285,7,508,630,218,742,772,944,606,544,849,396,215,307,590,499,616,452,82,125,440,144,916,398,501,534,683,818,418,163,409,583,901,408,32,201,680,117,68,887,771,13,686,674,49,684,545,60,210,458,181,701,309,149,471,400,600,795,263,660,831,711,815,128,945,580,46,189,561,529,64,185,908,202,83,868,223,870,357,2,347,480,865,790,706,862,884,845,127,792,804,555,693,761,533,475,317,31,899,290,388,525,930,245,669,394,725,722,161,164,855,911,723,179,898,676,148,558,33,80,369,4,541,993,933,478,383,832,353,9,926,809,184,137,702,657,411,521,334,332,975,673,679,687,162,973,171,363,407,477,466,724,652,326,227,547,39,474,180,624,551,6,765,962,441,488,732,404,86,487,17,517,377,299,907,222,786,839,794,748,45,955,25,619,99,121,848,178,91,358,579,336,455,176,760,354,428,821,987,172,824,520,138,563,565,523,921,538,464,390,589,834,76,999,570,154,373,352,595,393,651,211,807,456,947,397,863,362,275,994,852,847,796,346,653,134,784,922,822,640,92,836,735,492,47,629,493,698,432,110,112,133,929,74,350,578,48,150,594,699,0,913,746,906,741,174,106,981,828,485,755,902,522,763,389,420,649,467,195,240,920,494,719,727,643,198,266,294,291,14,258,592,665,279,747,265,625,610,717,918,260,115,378,648,85,615,166,697,716,780,303,78,961,495,200,10,498,954,637,71,877,329,971,364,858,395,758,379,183,444,543,958,888,11,191,24,287,797,704,876,705,655,410,316,820,682,100,12,703,924,620,552,692,274,361,575,659,376,342,769,269,29,255,385,688,509,319,636,827,917,481,268,175,856,325,297,44,251,622,808,940,709,577,187,785,880,753,585,193,8,489,696,992,235,923,609,752,465,601,165,213,338,912,340,963,351,805,453,312,957,799,892,773,413,537,882,156,308,690,158,782,976,131,283,569,438,272,879,712,530,607,927,114,343,153,939,111,304,463,217,57,980,313,943,550,169,734,167,90,969,811,895,421,40,857,567,270,989,34,468,729,681,315,909,243,256,931,502,146,449,490,271,406,514,41,188,359,897,938,289,267,781,209,426,613,89,860,314,101,900,713,107,559,833,141,859,553,50,588,104,806,861,842,62,262,936,591,966,63,5,814,500,623,392,779,604,967,812,641,328,995,356,519,160,556,871,447,608,124,3,102,36,226,66,740,208,273,248,51,667,526,375,192,778,658,399,214,284,16,728,546,893,234,446,15,416,300,497,844,950,997,84,205,403,803,866,72,337,689,372,904,118,810,990,532,560,617,237,374,333,103,168,1,229,113,914,295,942,783,232,708,513,823,75,762,516,573,666,663,136,22]","arrowleft","","true","0","16","133","1000","[""0085_N1000_K0133_CLIQUE"",""0067_N1000_K0133_NOCLIQUE""]"
"","","","","","audio-keyboard-response","101","253903","0.0-64.0-0.0-1.0","","null","audio_feedback/right/coin01.mp3","null","","","","","0","16","133","1000","[""0085_N1000_K0133_CLIQUE"",""0067_N1000_K0133_NOCLIQUE""]"
"","","","","","canvas-keyboard-response","102","260017","0.0-65.0-0.0-0.0","","2658","","arrowleft","[508,584,913,624,639,601,430,433,567,878,477,858,357,863,661,748,390,885,897,581,565,332,925,963,415,749,499,974,886,46,201,461,478,280,449,165,991,800,481,764,968,533,817,745,402,895,304,738,78,247,354,792,522,92,937,506,501,107,195,103,810,856,393,431,371,628,279,850,410,734,368,587,299,612,3,828,861,994,577,851,373,255,334,832,679,479,347,422,167,48,250,149,671,935,702,600,599,589,44,635,209,953,733,352,799,483,133,488,986,766,291,490,653,135,973,227,265,715,191,63,202,176,333,155,724,160,742,722,762,704,267,615,346,932,327,520,987,507,693,229,982,784,290,47,591,331,668,980,69,592,787,975,221,245,32,530,750,179,655,468,723,578,580,853,440,286,546,525,529,9,42,441,51,307,29,696,306,459,122,394,10,435,811,971,622,309,917,55,547,66,174,835,905,277,494,458,228,106,950,110,625,436,312,866,778,550,190,235,94,14,416,240,6,319,549,139,230,261,531,192,692,970,97,643,683,914,721,7,829,796,424,928,718,705,114,834,406,125,919,541,71,405,492,409,276,947,392,887,871,313,372,144,772,936,43,951,23,907,633,806,180,109,900,338,49,128,374,598,966,630,836,337,714,60,311,288,40,205,684,239,396,893,701,755,516,340,889,495,317,358,268,867,152,540,526,182,880,783,194,870,127,70,555,91,324,823,150,285,695,74,305,664,379,432,860,207,891,874,716,842,242,730,73,17,585,649,962,314,153,920,395,100,557,903,859,759,298,662,493,713,173,293,955,576,310,611,763,690,193,300,169,706,894,948,697,998,843,952,367,902,320,217,444,423,90,120,80,462,605,343,918,608,450,528,287,656,916,539,339,765,262,13,198,789,249,801,681,534,238,595,419,4,472,673,774,833,964,34,389,460,365,992,216,984,408,554,1,521,631,636,779,257,344,98,272,688,67,82,471,452,2,470,644,45,154,808,901,961,438,511,855,884,237,204,210,50,837,41,610,771,391,208,731,617,552,253,996,437,251,59,634,88,378,571,281,596,166,570,52,780,254,360,463,514,957,827,342,188,386,83,515,484,753,825,561,159,826,448,864,118,85,231,652,791,896,629,802,651,175,226,873,768,978,197,877,904,491,754,509,412,707,96,933,746,537,665,131,157,869,447,141,282,638,399,575,164,593,75,124,559,146,275,403,130,945,943,958,532,839,687,38,969,942,101,35,623,786,620,121,214,335,225,326,797,965,981,872,16,161,329,548,87,727,353,519,18,376,682,573,140,39,503,475,954,613,482,619,685,411,425,341,993,657,769,485,890,710,36,637,640,689,243,542,270,675,818,345,510,844,527,68,931,439,632,757,852,336,172,134,369,404,72,944,556,178,465,798,321,236,770,356,676,926,274,224,25,398,868,480,698,260,426,219,375,776,22,318,979,259,524,518,538,777,434,233,743,566,536,729,504,289,162,647,427,185,621,841,940,663,686,296,876,767,136,315,846,473,586,820,574,544,568,821,741,234,737,303,454,81,606,535,407,658,756,946,213,985,654,442,803,246,248,911,355,129,297,349,804,256,840,775,999,879,258,941,909,505,487,156,429,609,453,709,680,93,921,308,563,815,443,849,420,666,618,740,457,57,56,672,104,0,881,200,899,642,84,451,670,322,263,116,417,183,908,158,145,594,824,960,325,86,862,616,199,428,11,21,77,143,54,27,189,988,218,543,699,413,930,177,990,645,266,244,967,117,361,805,397,758,717,294,553,328,212,252,284,271,489,380,33,53,588,751,888,65,558,455,848,108,385,929,814,892,667,793,669,384,382,650,474,732,711,364,604,381,782,976,469,89,387,456,99,486,351,138,627,816,105,464,694,712,545,20,350,500,302,569,5,181,377,857,273,206,215,583,184,602,626,898,359,496,348,400,512,845,421,551,58,788,362,147,739,807,597,502,761,785,906,938,8,123,476,187,983,151,972,316,728,222,582,62,923,865,790,736,959,170,445,726,163,883,115,220,781,31,95,831,989,735,383,388,278,203,995,418,30,910,401,703,720,295,37,142,830,446,564,323,579,517,241,760,795,414,744,12,513,934,467,700,773,997,168,562,812,607,79,614,924,813,363,590,725,497,691,915,819,560,674,939,466,112,875,119,882,603,498,292,523,370,137,708,76,102,15,677,111,854,126,366,19,232,747,211,838,660,113,956,264,196,847,572,641,912,648,330,659,223,301,719,132,148,922,283,28,794,269,678,171,64,977,927,186,61,26,24,752,646,809,822,949]","arrowleft","","true","0","17","133","1000","[""0088_N1000_K0133_CLIQUE"",""0058_N1000_K0133_NOCLIQUE""]"
"","","","","","audio-keyboard-response","103","261007","0.0-65.0-0.0-1.0","","null","audio_feedback/right/coin01.mp3","null","","","","","0","17","133","1000","[""0088_N1000_K0133_CLIQUE"",""0058_N1000_K0133_NOCLIQUE""]"
