"success","timeout","failed_images","failed_audio","failed_video","trial_type","trial_index","time_elapsed","internal_node_id","view_history","rt","stimulus","response","nodes_order","correct_response","graphs_couple","accuracy","block_index","presentation_index","clique_size","graph_size","graphs_names"
"true","false","[]","[]","[]","preload","0","299","0.0-0.0","","","","","","","","","","","","",""
"","","","","","pavlovia","1","744","0.0-1.0","","","","","","","","","","","","",""
"","","","","","instructions","2","8120","0.0-2.0","[{""page_index"":0,""viewing_time"":2171},{""page_index"":1,""viewing_time"":5201}]","7372","","","","","","","","","","",""
"true","false","[]","[]","[]","preload","3","11131","0.0-3.0","","","","","","","","","","","","",""
"","","","","","instructions","4","101910","0.0-4.0","[{""page_index"":0,""viewing_time"":931},{""page_index"":1,""viewing_time"":2608},{""page_index"":2,""viewing_time"":962},{""page_index"":3,""viewing_time"":694},{""page_index"":4,""viewing_time"":726},{""page_index"":5,""viewing_time"":760},{""page_index"":6,""viewing_time"":800},{""page_index"":7,""viewing_time"":13109},{""page_index"":8,""viewing_time"":683},{""page_index"":9,""viewing_time"":745},{""page_index"":10,""viewing_time"":665},{""page_index"":11,""viewing_time"":1267},{""page_index"":12,""viewing_time"":1070},{""page_index"":13,""viewing_time"":2382},{""page_index"":14,""viewing_time"":841},{""page_index"":15,""viewing_time"":710},{""page_index"":16,""viewing_time"":546},{""page_index"":17,""viewing_time"":763},{""page_index"":18,""viewing_time"":599},{""page_index"":19,""viewing_time"":564},{""page_index"":20,""viewing_time"":498},{""page_index"":21,""viewing_time"":358},{""page_index"":22,""viewing_time"":776},{""page_index"":23,""viewing_time"":635},{""page_index"":24,""viewing_time"":569},{""page_index"":25,""viewing_time"":1108},{""page_index"":26,""viewing_time"":816},{""page_index"":27,""viewing_time"":766},{""page_index"":28,""viewing_time"":694},{""page_index"":29,""viewing_time"":675},{""page_index"":30,""viewing_time"":1028},{""page_index"":31,""viewing_time"":15814},{""page_index"":32,""viewing_time"":4809},{""page_index"":33,""viewing_time"":1423},{""page_index"":34,""viewing_time"":1249},{""page_index"":35,""viewing_time"":2272},{""page_index"":36,""viewing_time"":3262},{""page_index"":37,""viewing_time"":1248},{""page_index"":38,""viewing_time"":794},{""page_index"":39,""viewing_time"":975},{""page_index"":40,""viewing_time"":656},{""page_index"":41,""viewing_time"":589},{""page_index"":42,""viewing_time"":2304},{""page_index"":43,""viewing_time"":8929},{""page_index"":44,""viewing_time"":2411},{""page_index"":45,""viewing_time"":1949},{""page_index"":46,""viewing_time"":736},{""page_index"":47,""viewing_time"":700},{""page_index"":48,""viewing_time"":544},{""page_index"":49,""viewing_time"":314},{""page_index"":50,""viewing_time"":226},{""page_index"":51,""viewing_time"":221}]","90774","","","","","","","","","","",""
"","","","","","instructions","5","103232","0.0-5.0","[{""page_index"":0,""viewing_time"":1310}]","1311","","","","","","","","","","",""
"true","false","[]","[]","[]","preload","6","103553","0.0-6.0","","","","","","","","","","","","",""
"","","","","","image-keyboard-response","7","108735","0.0-7.0","","5173","tutorial/task_familiarization_images/part 1/01_N160_K90_cliqueRight_question1.PNG"," ","","","","","","","","",""
"","","","","","image-keyboard-response","8","109567","0.0-8.0","","831","tutorial/task_familiarization_images/part 1/02_N160_K90_cliqueRight_question2.PNG"," ","","","","","","","","",""
"","","","","","image-keyboard-response","9","110725","0.0-9.0","","1157","tutorial/task_familiarization_images/part 1/03_N160_K90_cliqueRight_question3.PNG","arrowright","","","","","","","","",""
"","","","","","image-keyboard-response","10","111803","0.0-10.0","","1074","tutorial/task_familiarization_images/part 1/04_N160_K90_cliqueRight_solution.PNG"," ","","","","","","","","",""
"","","","","","image-keyboard-response","11","113076","0.0-11.0","","1271","tutorial/task_familiarization_images/part 1/05_N160_K65_cliqueRight_question1.PNG"," ","","","","","","","","",""
"","","","","","image-keyboard-response","12","116389","0.0-12.0","","3311","tutorial/task_familiarization_images/part 1/06_N160_K65_cliqueRight_question2.PNG"," ","","","","","","","","",""
"","","","","","image-keyboard-response","13","117709","0.0-13.0","","1318","tutorial/task_familiarization_images/part 1/07_N160_K65_cliqueRight_question3.PNG","arrowright","","","","","","","","",""
"","","","","","image-keyboard-response","14","118923","0.0-14.0","","1213","tutorial/task_familiarization_images/part 1/08_N160_K65_cliqueRight_solution.PNG"," ","","","","","","","","",""
"","","","","","image-keyboard-response","15","124567","0.0-15.0","","5643","tutorial/task_familiarization_images/part 1/09_N160_K50_cliqueLeft_question1.PNG"," ","","","","","","","","",""
"","","","","","image-keyboard-response","16","125438","0.0-16.0","","869","tutorial/task_familiarization_images/part 1/10_N160_K50_cliqueLeft_question2.PNG"," ","","","","","","","","",""
"","","","","","image-keyboard-response","17","126355","0.0-17.0","","916","tutorial/task_familiarization_images/part 1/11_N160_K50_cliqueLeft_question3.PNG","arrowleft","","","","","","","","",""
"","","","","","image-keyboard-response","18","127498","0.0-18.0","","1141","tutorial/task_familiarization_images/part 1/12_N160_K50_cliqueLeft_solution.PNG"," ","","","","","","","","",""
"","","","","","image-keyboard-response","19","129123","0.0-19.0","","1625","tutorial/task_familiarization_images/part 1/13_N160_K80_cliqueLeft_question1.PNG"," ","","","","","","","","",""
"","","","","","image-keyboard-response","20","131375","0.0-20.0","","2251","tutorial/task_familiarization_images/part 1/14_N160_K80_cliqueLeft_question2.PNG"," ","","","","","","","","",""
"","","","","","image-keyboard-response","21","131979","0.0-21.0","","603","tutorial/task_familiarization_images/part 1/15_N160_K80_cliqueLeft_question3.PNG","arrowleft","","","","","","","","",""
"","","","","","image-keyboard-response","22","132700","0.0-22.0","","719","tutorial/task_familiarization_images/part 1/16_N160_K80_cliqueLeft_solution.PNG"," ","","","","","","","","",""
"","","","","","image-keyboard-response","23","134346","0.0-23.0","","1645","tutorial/task_familiarization_images/part 1/17_N160_K40_cliqueRight_question1.PNG"," ","","","","","","","","",""
"","","","","","image-keyboard-response","24","135434","0.0-24.0","","1087","tutorial/task_familiarization_images/part 1/18_N160_K40_cliqueRight_question2.PNG"," ","","","","","","","","",""
"","","","","","image-keyboard-response","25","136346","0.0-25.0","","911","tutorial/task_familiarization_images/part 1/19_N160_K40_cliqueRight_question3.PNG","arrowright","","","","","","","","",""
"","","","","","image-keyboard-response","26","137478","0.0-26.0","","1131","tutorial/task_familiarization_images/part 1/20_N160_K40_cliqueRight_solution.PNG"," ","","","","","","","","",""
"","","","","","image-keyboard-response","27","139004","0.0-27.0","","1525","tutorial/task_familiarization_images/part 1/21_N160_K70_cliqueLeft_question1.PNG"," ","","","","","","","","",""
"","","","","","image-keyboard-response","28","139589","0.0-28.0","","583","tutorial/task_familiarization_images/part 1/22_N160_K70_cliqueLeft_question2.PNG"," ","","","","","","","","",""
"","","","","","image-keyboard-response","29","140127","0.0-29.0","","537","tutorial/task_familiarization_images/part 1/23_N160_K70_cliqueLeft_question3.PNG","arrowleft","","","","","","","","",""
"","","","","","image-keyboard-response","30","140844","0.0-30.0","","653","tutorial/task_familiarization_images/part 1/24_N160_K70_cliqueLeft_solution.PNG"," ","","","","","","","","",""
"true","false","[]","[]","[]","preload","31","141326","0.0-31.0","","","","","","","","","","","","",""
"","","","","","image-keyboard-response","32","146960","0.0-32.0","","5631","tutorial/task_familiarization_images/part 2/01_160_80_cliqueLeft_withFeedback_1.PNG"," ","","","","","","","","",""
"","","","","","image-keyboard-response","33","147765","0.0-33.0","","803","tutorial/task_familiarization_images/part 2/02_160_80_cliqueLeft_withFeedback_1.PNG"," ","","","","","","","","",""
"","","","","","image-keyboard-response","34","148485","0.0-34.0","","719","tutorial/task_familiarization_images/part 2/03_160_80_cliqueLeft_withFeedback_3.PNG","arrowleft","","","","","","","","",""
"","","","","","image-keyboard-response","35","149327","0.0-35.0","","831","tutorial/task_familiarization_images/part 2/04_160_80_cliqueLeft_withFeedback_correct.PNG"," ","","","","","","","","",""
"","","","","","image-keyboard-response","36","151718","0.0-36.0","","2390","tutorial/task_familiarization_images/part 2/05_160_55_cliqueRight_withFeedback_1.PNG"," ","","","","","","","","",""
"","","","","","image-keyboard-response","37","153989","0.0-37.0","","2270","tutorial/task_familiarization_images/part 2/06_160_55_cliqueRight_withFeedback_2.PNG"," ","","","","","","","","",""
"","","","","","image-keyboard-response","38","154655","0.0-38.0","","665","tutorial/task_familiarization_images/part 2/07_160_55_cliqueRight_withFeedback_3.PNG","arrowright","","","","","","","","",""
"","","","","","image-keyboard-response","39","155656","0.0-39.0","","1000","tutorial/task_familiarization_images/part 2/08_160_55_cliqueRight_withFeedback_correct.PNG"," ","","","","","","","","",""
"","","","","","image-keyboard-response","40","158371","0.0-40.0","","2713","tutorial/task_familiarization_images/part 2/09_160_70_cliqueLeft_withFeedback_1.PNG"," ","","","","","","","","",""
"","","","","","image-keyboard-response","41","159221","0.0-41.0","","849","tutorial/task_familiarization_images/part 2/10_160_70_cliqueLeft_withFeedback_2.PNG"," ","","","","","","","","",""
"","","","","","image-keyboard-response","42","160047","0.0-42.0","","824","tutorial/task_familiarization_images/part 2/11_160_70_cliqueLeft_withFeedback_3.PNG","arrowleft","","","","","","","","",""
"","","","","","image-keyboard-response","43","160909","0.0-43.0","","860","tutorial/task_familiarization_images/part 2/12_160_70_cliqueLeft_withFeedback_correct.PNG"," ","","","","","","","","",""
"","","","","","survey-html-form","44","198770","0.0-44.0","","37841","","{""gender"":""female"",""age"":""23""}","","","","","","","","",""
"","","","","","instructions","45","202734","0.0-45.0","[{""page_index"":0,""viewing_time"":3963}]","3963","","","","","","","","","","",""
"true","","","","","fullscreen","46","206609","0.0-47.0","","","","","","","","","","","","",""
"","","","","","canvas-keyboard-response","47","211028","0.0-48.0-0.0-0.0","","3122","","arrowright","[123,179,913,245,8,92,947,304,53,313,681,762,899,310,298,21,555,357,275,772,541,63,960,11,263,813,108,872,71,893,980,49,413,606,692,851,19,507,392,172,573,816,943,706,684,350,375,207,713,473,355,3,995,166,834,973,300,162,235,622,966,906,620,812,62,903,458,345,498,324,67,627,52,526,380,708,403,250,770,579,141,839,272,748,343,134,633,829,338,321,161,859,289,722,745,7,358,306,193,925,907,700,396,430,583,185,554,910,342,266,765,460,757,105,376,643,710,607,614,998,414,786,296,828,781,72,747,70,809,496,312,420,500,751,698,9,728,325,446,865,457,909,84,493,655,612,22,455,45,428,838,75,789,916,323,377,974,625,965,826,609,760,837,423,364,450,699,279,293,44,467,769,531,346,485,564,963,705,651,122,236,299,886,820,32,362,516,268,406,229,148,449,436,484,999,349,889,842,697,365,36,863,689,120,663,982,515,23,776,15,283,800,469,674,957,804,785,372,808,443,823,513,743,577,989,456,17,901,232,707,815,514,459,33,597,147,918,237,858,214,320,270,159,824,856,278,771,454,791,165,599,307,686,499,841,471,379,942,570,605,788,352,86,712,621,801,876,361,344,717,718,782,216,16,463,846,528,967,825,506,543,673,466,366,783,683,703,887,926,955,568,530,905,115,714,883,649,329,832,911,811,497,603,368,659,552,696,898,65,335,954,799,639,951,121,637,37,857,553,87,936,944,277,793,385,109,78,753,448,51,384,158,370,388,709,29,291,318,56,442,210,451,704,488,199,735,601,252,975,623,2,231,405,503,93,613,631,139,575,331,940,170,870,670,54,301,144,124,163,66,83,669,917,142,666,596,678,956,874,319,58,868,682,228,847,437,76,787,676,294,656,720,258,896,630,539,798,85,949,540,447,408,31,921,192,424,209,410,435,82,308,836,867,98,140,434,239,238,662,1,27,205,314,167,287,560,915,869,626,881,557,353,50,152,591,860,991,849,641,327,871,339,69,168,157,636,397,416,276,904,155,521,882,723,827,249,101,464,242,803,566,285,180,302,537,588,30,730,418,217,169,41,389,556,866,958,274,341,59,716,736,862,481,533,100,90,675,780,48,729,843,351,920,535,136,650,482,395,964,88,587,997,677,255,282,280,657,177,489,546,12,119,969,545,671,922,654,562,189,46,844,806,171,197,114,340,550,615,766,151,578,491,99,784,775,536,953,725,632,512,667,908,559,383,94,660,972,89,305,487,178,891,292,544,590,779,946,204,598,937,890,792,79,819,34,483,138,441,726,534,807,334,259,132,861,401,5,244,39,130,576,128,939,610,931,60,271,234,750,373,986,116,315,833,777,81,831,402,565,608,532,160,582,494,744,694,241,617,253,928,727,286,875,983,805,501,968,571,767,702,57,452,941,453,978,153,322,262,367,517,850,359,854,213,415,222,594,295,661,146,581,125,948,246,647,240,421,393,230,646,18,354,892,734,200,665,561,472,465,652,912,154,68,645,990,695,878,679,407,595,593,810,219,691,817,126,959,873,113,567,381,840,195,802,431,111,6,755,387,127,900,739,400,930,433,884,398,796,103,419,919,644,988,432,206,378,701,924,888,732,117,129,742,640,461,504,523,328,938,693,40,490,97,979,412,202,184,584,225,337,508,952,855,740,509,260,511,685,486,440,510,316,549,721,429,186,794,297,174,835,935,371,977,35,522,774,987,181,950,752,518,399,391,348,284,363,628,439,24,586,648,797,226,247,74,264,602,758,520,61,55,994,737,638,830,970,131,201,10,773,13,212,569,333,616,923,478,311,476,563,624,754,589,347,404,932,795,715,438,687,112,984,764,658,680,326,208,479,14,818,444,133,422,653,211,934,374,183,220,495,738,251,618,243,191,173,164,445,394,390,215,77,996,47,733,221,102,288,175,474,690,386,73,145,619,462,96,768,525,468,417,668,711,611,475,548,330,822,877,962,629,572,409,547,303,914,265,110,135,933,592,519,80,524,0,176,269,281,218,267,971,317,149,227,369,664,477,746,580,895,470,38,897,356,672,719,992,574,981,25,885,480,273,64,542,104,558,635,28,538,203,845,187,894,150,880,26,927,137,551,182,254,233,985,256,741,309,724,763,821,332,759,642,42,604,790,43,382,852,107,360,190,505,20,4,194,529,224,853,290,198,976,426,143,731,106,600,929,634,196,248,425,688,156,778,585,188,879,336,756,223,527,257,118,502,95,411,492,848,749,427,902,261,945,91,961,864,814,993,761]","arrowright","","true","0","0","300","1000","[""0035_N1000_K0300_NOCLIQUE"",""0012_N1000_K0300_CLIQUE""]"
"","","","","","audio-keyboard-response","48","212243","0.0-48.0-0.0-1.0","","null","audio_feedback/right/coin01.mp3","null","","","","","0","0","300","1000","[""0035_N1000_K0300_NOCLIQUE"",""0012_N1000_K0300_CLIQUE""]"
"","","","","","canvas-keyboard-response","49","214939","0.0-49.0-0.0-0.0","","1347","","arrowright","[489,450,133,576,611,166,394,769,425,863,939,875,884,948,871,280,541,346,833,741,682,930,550,944,307,589,479,719,797,17,115,703,405,675,296,651,446,880,237,491,968,382,577,401,283,369,744,693,170,789,517,327,81,977,920,436,38,906,879,386,609,365,249,230,864,213,322,278,603,24,175,722,338,151,198,448,912,357,223,758,905,764,768,477,212,225,297,364,318,810,551,121,848,244,661,836,22,145,415,600,704,328,529,404,673,25,28,396,306,391,978,102,344,583,483,530,782,584,246,146,116,791,934,464,800,938,123,913,851,485,428,456,980,915,247,847,242,687,332,843,216,951,88,493,275,137,504,65,814,521,176,757,431,957,444,337,784,202,368,287,522,114,545,904,345,988,736,697,129,66,77,721,358,48,127,72,201,893,141,666,705,494,730,284,990,963,398,68,408,372,316,538,238,177,161,468,486,388,7,586,647,98,180,671,812,6,241,67,924,729,233,9,128,830,832,245,688,164,765,355,676,737,943,60,740,700,794,159,361,615,914,162,707,846,553,409,659,631,460,691,995,898,341,200,363,935,392,910,857,209,672,694,827,32,217,650,623,878,677,426,950,91,975,536,610,606,207,331,423,544,484,644,753,1,370,627,685,169,433,683,645,218,746,422,154,335,532,256,786,281,796,798,500,26,93,503,199,972,187,227,652,630,321,463,234,353,220,991,858,866,621,178,955,945,844,555,724,509,655,482,547,273,698,588,82,333,229,725,31,39,188,167,343,727,265,95,299,399,862,718,513,877,304,356,745,379,70,393,8,30,570,595,552,695,985,421,933,289,94,315,211,12,189,640,667,835,360,663,259,831,490,126,4,420,311,302,870,224,84,75,993,792,215,869,195,435,601,294,578,829,732,325,74,495,662,179,908,109,371,473,385,929,156,142,42,457,637,467,254,992,954,936,860,548,305,708,352,567,960,80,686,226,264,350,925,885,100,728,418,410,826,559,526,657,563,340,678,300,362,712,989,720,759,427,165,508,525,152,845,285,469,528,380,761,196,243,276,310,298,342,994,41,713,69,354,125,407,702,54,438,881,312,807,173,573,896,974,279,901,330,751,317,787,805,326,367,680,131,269,348,535,250,873,571,155,153,120,373,911,926,92,462,397,638,168,205,976,801,138,432,144,717,130,291,593,907,61,270,232,706,476,511,771,437,143,255,629,470,982,478,135,780,777,50,29,46,186,837,119,474,947,986,197,454,400,320,117,434,136,633,941,572,411,157,56,313,970,277,76,85,983,625,626,90,449,585,711,174,150,274,79,347,919,648,823,928,597,653,808,442,324,716,455,47,854,895,999,37,53,59,402,932,620,581,961,587,208,139,613,501,419,574,799,236,252,286,619,34,524,891,859,466,793,23,497,445,965,549,795,689,733,996,902,806,104,897,592,261,649,99,191,958,804,429,542,192,973,756,921,839,734,813,642,818,917,45,336,251,882,383,922,290,0,228,465,752,487,809,83,132,414,515,952,263,148,855,762,403,374,632,766,295,118,838,579,185,560,73,282,942,892,825,107,33,543,160,770,16,523,709,568,964,86,772,665,527,546,909,856,590,13,790,558,378,850,956,461,519,64,231,816,62,44,267,840,643,87,181,520,656,140,889,738,453,303,10,512,776,387,628,113,516,867,781,3,505,210,773,743,381,147,872,890,510,222,674,36,967,240,699,20,292,481,853,248,591,417,815,923,149,496,395,349,605,946,531,158,802,492,472,540,962,89,58,55,668,193,748,742,451,754,390,182,533,554,15,366,329,779,654,539,518,817,692,268,617,440,111,266,260,735,301,888,439,190,51,562,52,959,594,43,172,811,122,110,480,458,412,918,49,747,575,852,767,641,443,323,616,821,566,14,596,272,375,874,865,163,475,822,937,183,723,239,669,868,204,783,841,834,424,940,900,2,18,537,319,569,679,763,19,507,580,987,134,561,389,96,636,998,690,635,271,774,604,819,927,339,21,71,622,488,194,506,206,788,749,634,359,253,849,288,618,97,384,309,714,949,599,314,105,883,171,452,203,78,101,221,184,598,11,416,981,413,715,739,124,235,750,582,608,262,614,710,377,785,564,969,820,612,602,557,27,258,971,903,498,112,953,447,639,63,894,916,886,257,214,979,556,726,502,701,731,471,861,887,824,459,534,660,57,803,670,775,499,106,35,899,351,966,828,931,219,441,984,514,565,406,876,997,778,430,842,755,308,684,376,664,681,103,646,658,293,40,334,607,624,760,696,5,108]","arrowright","","true","0","1","300","1000","[""0004_N1000_K0300_NOCLIQUE"",""0078_N1000_K0300_CLIQUE""]"
"","","","","","audio-keyboard-response","50","215943","0.0-49.0-0.0-1.0","","null","audio_feedback/right/coin01.mp3","null","","","","","0","1","300","1000","[""0004_N1000_K0300_NOCLIQUE"",""0078_N1000_K0300_CLIQUE""]"
"","","","","","canvas-keyboard-response","51","218384","0.0-50.0-0.0-0.0","","1020","","arrowright","[230,814,167,268,630,346,412,387,370,87,618,871,758,210,520,78,315,990,235,195,585,770,754,959,424,743,697,810,30,935,716,243,383,528,954,280,913,116,658,752,651,877,567,165,557,293,812,381,182,264,753,462,699,664,906,986,333,552,53,46,834,476,285,956,886,747,223,698,657,282,765,123,1,439,198,233,529,213,725,109,428,578,390,665,96,813,43,237,708,501,762,852,119,16,841,663,199,188,978,570,722,903,896,27,936,350,422,807,368,603,491,380,312,704,85,984,197,106,522,437,898,652,966,281,721,792,668,700,111,278,621,303,579,356,121,794,558,318,915,286,586,497,783,767,393,824,457,468,17,574,416,205,28,863,717,600,75,726,21,126,304,502,969,649,823,872,576,200,602,226,360,337,601,546,402,768,946,897,524,316,415,79,374,909,407,247,77,597,206,224,648,530,593,288,301,187,40,51,537,876,378,308,425,706,403,359,473,995,604,60,266,941,220,261,191,844,375,613,105,271,928,960,29,880,842,11,961,475,589,696,181,456,392,228,785,789,90,910,149,848,470,983,112,988,996,314,845,513,795,91,769,458,33,963,938,341,774,163,592,98,982,215,571,427,974,161,159,170,889,260,626,113,180,731,934,517,687,804,957,241,569,493,846,352,504,307,5,494,120,454,305,563,394,901,690,890,799,324,914,466,772,873,580,372,534,583,59,376,22,64,351,464,802,208,406,14,117,756,192,339,190,32,718,171,916,862,361,647,169,365,727,654,291,143,822,998,939,189,69,710,41,413,672,805,335,971,68,786,525,964,796,57,888,724,905,659,338,999,467,859,388,682,238,58,47,523,973,56,977,736,313,252,881,788,7,900,750,240,947,661,763,414,357,495,10,176,342,953,739,39,639,572,3,861,48,300,23,594,239,144,382,155,184,979,730,830,336,54,395,24,334,432,891,257,319,485,477,115,355,860,65,254,518,490,547,500,629,63,248,779,384,787,76,562,542,633,976,573,894,625,345,55,713,908,86,284,508,93,671,944,828,605,818,512,596,856,927,290,255,606,975,371,734,145,553,711,584,865,948,628,465,327,434,539,837,646,217,556,61,322,526,471,858,107,777,396,680,196,729,590,519,82,354,608,296,801,733,20,631,893,12,866,740,448,673,764,443,366,225,962,411,6,748,674,784,921,299,433,183,627,168,118,70,565,655,835,154,510,940,782,400,746,479,245,843,997,369,160,685,989,8,827,882,385,923,162,80,543,821,918,135,294,347,614,577,854,153,242,561,138,125,853,418,164,968,450,981,26,669,114,249,103,496,89,295,662,423,920,446,227,258,35,36,250,214,267,702,348,430,202,879,715,474,320,692,611,311,218,943,972,521,397,737,140,172,175,564,541,741,431,156,203,681,686,929,930,482,641,544,735,885,679,793,488,738,811,52,435,875,851,363,624,283,677,81,598,617,146,461,942,132,867,221,694,771,136,549,321,34,745,9,749,642,922,150,289,325,83,246,472,645,967,808,637,759,816,417,92,358,216,505,332,826,49,404,142,389,958,623,536,980,985,836,298,925,869,926,864,778,937,451,253,701,728,13,644,857,540,317,566,965,442,420,676,122,489,101,884,137,343,364,38,487,766,201,819,868,678,31,511,272,158,691,212,904,478,279,231,902,780,970,817,791,469,426,340,709,37,373,653,219,656,619,924,452,560,236,732,108,148,588,440,73,806,591,229,800,401,582,498,689,632,952,607,177,892,44,499,670,660,344,825,666,950,705,803,151,270,194,675,761,486,684,66,134,751,532,50,951,331,222,515,330,277,707,484,559,391,67,2,173,353,870,204,775,302,444,503,878,398,447,551,377,480,306,193,287,757,533,436,262,554,102,441,166,124,506,907,760,615,683,932,211,449,514,492,955,110,949,912,408,829,88,781,849,45,4,405,326,820,349,0,798,186,25,399,265,535,991,445,19,127,379,133,712,636,178,84,773,933,362,72,550,421,367,638,643,139,234,130,42,209,310,269,438,128,251,667,855,329,595,635,833,695,531,599,71,703,244,292,185,720,509,895,945,95,581,992,323,612,887,157,538,620,419,616,100,548,640,847,232,688,99,899,622,74,263,693,453,609,797,131,207,516,481,874,634,839,555,273,838,297,650,587,455,483,832,850,259,776,755,993,831,840,409,994,460,275,62,527,931,386,987,15,129,18,174,274,276,919,575,790,463,815,141,309,744,742,97,809,410,568,545,883,152,507,256,429,911,328,459,610,179,723,94,714,719,147,917,104]","arrowright","","true","0","2","267","1000","[""0064_N1000_K0267_NOCLIQUE"",""0073_N1000_K0267_CLIQUE""]"
"","","","","","audio-keyboard-response","52","219383","0.0-50.0-0.0-1.0","","null","audio_feedback/right/coin01.mp3","null","","","","","0","2","267","1000","[""0064_N1000_K0267_NOCLIQUE"",""0073_N1000_K0267_CLIQUE""]"
"","","","","","canvas-keyboard-response","53","221909","0.0-51.0-0.0-0.0","","1280","","arrowleft","[33,395,846,136,632,554,622,518,226,367,999,840,324,891,471,657,517,913,151,609,857,975,144,88,25,15,94,588,921,483,510,864,637,878,438,536,739,998,295,414,614,965,147,780,734,638,717,186,863,112,476,396,820,534,972,187,522,300,556,3,868,562,477,351,957,722,60,409,261,164,270,686,462,551,704,461,644,499,970,312,936,7,65,915,757,829,955,898,587,929,275,982,786,847,874,201,685,711,416,856,100,101,74,91,710,383,855,924,350,444,941,127,537,48,707,407,123,521,339,452,198,603,494,771,400,613,730,77,934,447,715,192,528,995,252,871,751,425,844,636,973,875,96,906,429,8,951,389,222,773,949,269,748,977,643,37,881,577,616,548,814,218,93,68,157,141,379,832,467,901,815,925,32,806,687,84,489,253,539,301,940,505,378,511,310,519,684,753,502,42,280,175,912,769,583,372,983,559,322,669,619,758,224,810,53,666,845,904,231,161,533,571,203,388,397,819,553,234,932,671,695,133,158,242,942,712,38,190,512,784,472,532,52,797,420,142,445,358,879,143,791,817,516,260,482,584,988,408,658,931,118,777,664,421,689,680,29,153,73,604,976,768,277,903,682,166,655,623,783,523,818,754,130,274,104,76,703,268,328,306,380,97,675,491,681,92,698,14,506,569,630,22,628,639,514,767,618,418,375,899,204,668,825,850,373,67,45,610,135,121,311,357,210,629,660,848,108,69,792,475,321,960,950,26,51,772,525,530,119,729,572,70,650,348,719,294,139,345,740,145,602,952,442,495,581,30,667,181,284,746,842,526,223,360,882,807,58,131,794,315,578,593,170,566,331,54,12,264,916,149,297,113,880,800,676,971,485,642,174,535,83,953,520,824,688,823,303,605,849,171,246,804,298,189,177,250,288,645,255,347,515,411,34,547,80,95,455,764,341,646,200,75,997,240,82,654,755,498,217,694,984,366,509,10,896,701,651,902,550,384,19,191,887,72,356,137,232,592,363,208,62,795,55,4,808,469,336,35,404,617,106,21,243,935,216,964,835,486,908,195,713,836,160,368,884,889,220,66,102,28,159,811,154,382,359,679,752,335,853,980,273,766,427,828,678,503,71,305,337,463,872,596,63,546,11,371,319,589,197,920,801,620,733,212,598,545,563,626,862,943,834,349,17,259,41,282,716,927,456,714,381,391,325,705,756,205,422,876,468,209,120,994,193,369,211,524,443,833,248,996,775,802,236,287,708,258,761,148,114,304,500,600,392,419,343,625,538,488,31,182,283,185,652,656,763,398,490,910,233,985,436,954,718,308,99,59,451,492,271,215,272,865,16,342,966,57,702,595,838,433,276,778,745,785,115,736,20,225,612,230,894,944,27,105,466,696,453,124,279,762,843,221,926,266,564,725,692,956,229,46,302,290,194,909,244,134,117,393,86,747,788,961,423,484,241,742,697,338,930,967,992,888,199,317,647,13,608,390,163,738,227,579,417,1,968,377,402,352,831,110,947,731,978,732,897,180,790,591,905,333,125,479,852,458,541,228,919,986,709,809,770,470,674,481,779,299,552,85,138,621,459,365,601,354,858,432,812,44,900,435,109,441,923,979,987,122,156,24,434,330,430,724,586,132,991,798,665,648,741,958,826,107,886,631,207,424,890,557,693,543,89,355,376,196,172,816,883,245,813,737,959,854,307,465,183,140,662,406,146,885,176,570,640,318,821,837,895,239,670,457,735,173,585,251,439,700,61,188,699,327,450,78,399,90,293,386,448,870,673,635,413,219,344,165,178,155,39,493,627,933,611,426,911,98,428,918,87,672,782,938,663,513,169,561,281,329,385,202,263,805,162,415,235,346,830,555,56,116,292,781,286,387,594,9,706,79,267,507,568,394,254,641,64,237,362,36,727,497,256,152,624,6,720,759,776,313,238,690,81,184,2,877,945,285,974,787,914,47,922,873,765,677,750,478,111,460,981,49,851,289,326,567,659,661,544,866,928,560,893,454,867,946,597,633,50,728,653,504,323,691,474,332,353,257,128,0,859,410,574,464,606,265,576,501,599,167,437,743,760,683,549,607,841,249,370,993,749,989,213,361,103,179,440,40,963,789,803,558,917,18,214,403,480,615,150,540,937,334,962,129,309,405,529,262,580,861,316,320,168,278,892,487,590,374,449,247,774,582,43,860,401,796,990,5,723,948,412,527,126,939,565,573,314,575,340,869,822,721,799,839,649,531,969,473,508,206,446,291,793,431,496,744,296,364,634,726,23,827,542,907]","arrowleft","","true","0","3","267","1000","[""0069_N1000_K0267_CLIQUE"",""0100_N1000_K0267_NOCLIQUE""]"
"","","","","","audio-keyboard-response","54","222903","0.0-51.0-0.0-1.0","","null","audio_feedback/right/coin01.mp3","null","","","","","0","3","267","1000","[""0069_N1000_K0267_CLIQUE"",""0100_N1000_K0267_NOCLIQUE""]"
"","","","","","canvas-keyboard-response","55","225141","0.0-52.0-0.0-0.0","","838","","arrowright","[553,557,53,924,851,520,31,176,905,84,830,28,996,262,460,619,634,689,659,10,858,413,177,251,187,337,692,16,857,597,316,26,470,803,416,318,48,274,233,304,529,240,512,687,531,39,489,614,935,23,235,79,509,871,441,101,352,956,535,307,596,734,723,223,804,844,907,132,527,841,281,443,216,300,551,295,150,683,329,283,271,185,940,47,641,987,386,327,547,700,407,396,989,96,237,259,913,508,411,99,30,604,868,769,188,942,257,544,86,273,995,586,908,426,311,792,247,76,425,573,852,87,611,430,779,870,867,167,178,923,384,452,157,743,561,526,358,977,716,876,522,478,69,91,390,642,5,506,661,308,487,617,598,585,791,787,750,909,628,939,393,210,691,475,486,62,706,388,521,606,477,745,797,665,492,88,570,646,588,375,651,978,772,100,3,992,1,999,120,479,109,456,815,764,505,709,410,873,361,461,11,85,637,359,591,8,703,866,378,675,346,774,875,455,59,993,347,108,152,601,514,840,341,137,360,656,781,699,552,164,582,754,575,312,473,110,802,415,371,67,134,474,595,626,317,218,798,467,664,269,850,562,253,645,447,56,495,855,567,878,234,630,494,190,335,136,600,462,263,482,366,255,676,198,715,365,794,68,325,40,418,57,594,835,775,249,63,806,156,306,73,133,784,968,499,776,811,824,949,348,767,975,299,519,180,166,160,889,181,102,607,244,735,254,205,491,510,193,941,148,182,362,592,741,194,200,264,103,29,895,827,846,433,80,698,980,279,783,116,680,334,836,883,45,241,451,985,655,649,674,414,681,261,536,756,943,293,481,24,613,81,501,599,678,515,221,861,991,230,270,751,742,623,986,632,523,500,162,970,762,471,533,690,330,955,569,117,18,704,129,893,929,503,571,963,288,652,686,144,712,438,801,564,364,454,880,342,825,660,435,882,854,639,884,538,971,291,113,837,540,727,834,104,339,605,560,744,839,722,439,322,717,124,94,184,19,207,539,849,973,730,125,643,930,914,736,761,962,828,21,528,848,15,720,814,647,581,4,874,669,912,688,890,258,389,524,106,61,671,566,944,780,420,472,151,554,707,74,997,625,41,267,950,812,376,50,945,711,336,292,638,377,633,899,957,331,746,863,493,739,321,672,66,936,714,752,220,266,864,217,568,894,320,211,139,485,593,525,948,947,920,392,518,115,559,537,865,994,7,967,480,534,280,759,555,786,78,938,197,498,831,43,323,354,333,82,89,226,154,209,212,484,490,842,305,90,192,214,918,728,602,437,394,738,718,777,796,933,373,289,309,937,372,696,654,702,932,27,922,118,222,428,174,173,98,549,885,424,401,724,959,22,431,446,344,542,998,615,532,171,813,668,146,580,314,589,558,979,663,449,629,952,636,917,921,847,667,697,910,64,488,693,530,353,832,14,887,6,402,789,265,843,332,368,733,448,161,363,238,381,684,406,186,648,960,513,60,286,618,961,631,36,204,126,609,511,239,123,758,800,469,324,753,405,666,343,644,972,252,9,398,902,640,450,159,111,682,695,808,412,577,165,543,442,127,163,243,285,422,888,550,169,395,778,95,287,497,203,224,476,248,49,97,788,990,897,175,268,892,191,904,981,954,799,444,374,149,294,37,313,725,653,807,272,453,93,142,635,357,982,901,404,790,984,17,565,976,710,496,701,131,303,75,721,112,170,42,168,282,785,731,403,869,369,2,966,891,872,677,70,172,603,726,740,195,768,782,679,916,227,147,548,657,608,658,25,974,616,107,83,845,297,12,183,128,13,35,54,906,399,215,202,260,860,817,507,199,290,747,576,121,219,826,879,51,179,417,953,821,298,719,805,0,951,819,583,46,911,926,436,919,673,440,853,145,153,574,823,862,236,749,345,466,92,232,340,770,350,713,315,65,432,228,231,760,590,856,458,773,838,829,34,158,379,670,141,886,818,822,387,278,284,483,52,708,229,310,33,958,729,277,650,705,903,820,624,38,927,427,763,685,463,189,326,563,928,256,541,408,946,748,545,771,464,459,130,584,302,206,766,119,135,385,964,367,351,556,32,380,245,900,983,833,793,355,612,391,44,58,208,579,338,400,434,694,457,732,516,965,383,915,155,349,423,934,627,620,20,502,877,409,356,246,898,382,925,71,809,143,276,587,517,816,140,737,572,445,114,419,546,397,328,610,122,662,988,755,77,504,275,296,621,242,105,225,622,810,881,370,969,468,859,319,896,201,757,429,795,250,301,72,213,138,465,765,578,196,931,421,55]","arrowright","","true","0","4","233","1000","[""0078_N1000_K0233_NOCLIQUE"",""0034_N1000_K0233_CLIQUE""]"
"","","","","","audio-keyboard-response","56","226143","0.0-52.0-0.0-1.0","","null","audio_feedback/right/coin01.mp3","null","","","","","0","4","233","1000","[""0078_N1000_K0233_NOCLIQUE"",""0034_N1000_K0233_CLIQUE""]"
"","","","","","canvas-keyboard-response","57","228394","0.0-53.0-0.0-0.0","","936","","arrowleft","[952,230,580,621,995,797,286,906,623,485,27,626,745,766,252,449,302,656,865,43,276,815,75,710,66,728,316,145,197,534,933,33,620,477,650,734,399,243,788,97,114,288,45,245,42,802,610,714,525,633,461,588,550,279,603,290,744,832,741,582,346,987,437,660,232,381,412,351,463,593,720,723,624,105,609,783,835,348,110,666,39,425,227,715,526,677,970,768,375,631,96,283,466,125,138,691,14,266,539,216,329,841,527,88,107,530,977,738,967,376,776,809,565,920,309,208,398,29,972,13,26,404,974,364,828,152,600,406,881,847,606,900,948,80,813,160,542,880,540,407,15,694,937,55,644,619,447,605,248,121,648,770,922,794,735,980,869,705,498,310,182,583,870,233,457,675,65,280,513,857,153,419,884,576,504,231,554,4,212,426,180,148,517,549,897,936,748,489,535,336,729,553,664,566,795,613,640,700,352,584,454,151,174,804,866,357,997,925,998,274,203,370,923,597,32,304,904,740,990,510,62,578,739,669,493,846,569,541,482,170,524,546,852,428,242,436,386,361,228,968,57,823,888,108,272,966,299,109,339,149,222,78,743,241,757,519,917,845,98,532,758,155,825,307,68,957,327,672,204,951,684,293,239,249,751,938,48,432,440,468,167,255,775,60,251,785,533,164,932,547,183,836,587,296,829,184,207,612,661,267,74,618,115,840,975,263,812,314,821,448,931,275,123,947,122,591,22,261,472,667,345,801,994,956,258,689,953,34,38,69,205,354,178,727,144,651,622,649,16,736,754,455,104,2,512,704,281,91,58,890,559,563,119,521,177,86,94,191,193,762,451,277,246,657,934,278,877,343,780,422,891,298,67,295,36,921,317,796,475,40,503,206,382,495,257,172,95,82,166,838,134,839,350,359,396,469,531,313,445,5,53,496,781,719,773,102,557,372,35,581,543,224,927,573,943,818,171,895,391,132,141,635,165,786,488,984,438,663,725,969,808,195,10,958,285,574,140,676,706,892,819,365,494,875,332,930,467,579,678,499,3,627,235,702,688,844,234,965,749,202,456,133,159,560,971,497,928,161,703,867,885,599,816,915,63,874,397,253,760,320,701,471,269,726,400,834,76,410,259,737,378,774,695,871,175,529,420,71,731,124,718,225,117,187,810,395,181,328,201,909,217,318,131,960,481,392,424,287,883,902,764,83,756,315,179,464,856,707,106,636,221,190,192,733,215,681,30,120,709,843,662,413,470,730,799,444,561,516,374,632,87,929,486,950,403,985,771,851,697,989,935,879,186,411,536,522,940,439,761,514,978,747,910,942,268,271,196,717,423,220,297,388,238,130,169,409,655,862,805,824,698,907,777,366,916,864,137,515,853,630,54,617,199,294,750,322,639,716,690,903,25,0,598,198,185,371,790,686,462,924,861,147,511,814,85,49,798,143,101,645,337,311,156,344,194,282,47,712,654,369,24,353,538,807,99,146,247,139,384,341,551,637,61,56,209,827,291,873,70,173,223,833,355,713,722,416,820,460,628,889,568,103,787,176,256,483,157,859,284,442,380,693,126,7,31,641,219,552,919,8,289,458,898,596,901,154,358,961,300,292,699,478,753,988,680,944,959,453,683,127,452,52,37,6,487,537,163,367,509,682,73,443,653,474,625,23,855,93,507,441,326,687,20,911,572,830,213,136,779,973,634,601,430,90,575,912,41,368,765,868,387,858,59,9,800,142,886,433,84,742,427,908,377,585,260,854,616,996,431,592,914,162,696,405,556,679,306,673,434,548,724,72,118,1,611,51,168,28,363,905,356,647,918,349,778,92,188,321,479,17,129,604,817,981,899,963,602,402,116,926,982,459,962,992,746,831,863,265,562,333,393,979,383,484,100,373,685,586,755,150,19,502,226,826,999,594,214,490,894,18,112,665,331,81,476,505,319,44,850,964,473,21,872,792,913,50,324,389,558,301,12,946,759,789,446,564,803,523,303,218,767,991,189,77,629,418,577,64,848,567,342,506,492,732,334,896,692,976,608,308,480,711,652,385,236,882,811,860,595,379,200,671,791,362,674,240,986,772,491,955,450,782,518,429,111,528,954,330,501,646,210,708,993,408,570,520,614,607,876,312,571,545,941,465,544,589,555,793,668,769,414,394,360,401,229,435,945,763,340,211,822,670,659,752,500,325,323,46,250,421,784,887,237,305,262,878,658,806,347,638,842,338,264,158,135,415,642,949,128,335,79,89,417,849,270,939,721,254,590,837,273,508,643,983,615,390,244,113,11,893]","arrowleft","","true","0","5","233","1000","[""0043_N1000_K0233_CLIQUE"",""0061_N1000_K0233_NOCLIQUE""]"
"","","","","","audio-keyboard-response","58","229382","0.0-53.0-0.0-1.0","","null","audio_feedback/right/coin01.mp3","null","","","","","0","5","233","1000","[""0043_N1000_K0233_CLIQUE"",""0061_N1000_K0233_NOCLIQUE""]"
"","","","","","canvas-keyboard-response","59","231692","0.0-54.0-0.0-0.0","","843","","arrowleft","[726,183,589,976,869,861,478,865,167,469,775,904,560,659,884,794,965,868,128,526,546,678,441,474,37,476,802,617,199,629,26,124,499,149,52,191,141,547,913,405,387,33,245,495,576,930,365,197,819,146,577,798,544,265,703,761,949,994,732,746,632,799,742,974,300,648,697,389,61,88,413,496,307,447,889,488,258,982,963,237,156,689,739,779,548,331,244,515,388,509,975,903,151,223,34,592,357,257,858,821,954,48,395,847,691,150,721,297,921,601,875,491,489,534,403,280,400,943,360,109,228,278,104,725,269,129,575,778,376,461,111,563,839,330,450,418,216,435,885,332,616,23,338,741,881,627,454,159,883,347,305,854,722,720,625,255,866,232,87,985,668,97,169,56,787,456,138,422,816,254,323,439,120,823,134,393,870,463,19,279,431,882,397,466,545,411,782,148,242,229,497,760,173,822,533,674,342,127,72,267,154,231,709,588,270,611,153,655,382,731,185,682,922,92,67,664,246,464,558,15,18,166,633,947,460,661,946,933,536,784,482,195,919,470,483,826,685,64,827,335,623,939,733,455,433,599,468,675,281,956,348,606,137,805,226,396,239,7,511,498,925,971,271,915,638,121,755,730,349,82,367,437,855,207,73,152,399,402,434,284,686,945,224,774,834,449,718,17,221,683,897,47,55,314,160,792,132,49,53,707,243,772,972,414,306,490,70,776,85,272,621,336,729,748,958,430,736,955,708,4,938,570,184,32,346,298,631,438,991,164,334,508,364,381,843,394,318,459,595,170,518,941,856,808,578,423,917,993,521,586,417,126,398,285,759,5,377,101,763,665,790,3,472,175,613,793,115,287,990,807,848,753,942,909,210,962,222,473,28,142,871,831,10,458,788,196,144,744,801,260,833,608,681,457,54,773,36,51,978,987,412,747,440,879,905,692,190,480,944,112,555,58,517,914,479,862,598,604,241,311,596,369,532,651,825,656,966,471,230,724,872,771,995,926,273,916,967,591,636,446,620,139,880,43,419,57,902,952,105,371,211,325,723,886,192,581,363,319,553,525,851,969,743,477,612,542,292,968,445,238,492,624,288,953,860,212,315,797,520,302,333,607,959,852,2,745,401,117,911,878,163,894,113,846,764,552,206,30,537,569,618,410,562,756,920,303,218,310,448,328,585,795,45,98,205,979,950,282,669,530,910,657,41,673,535,900,130,145,845,863,106,475,893,27,711,93,838,717,643,308,824,937,391,379,818,539,234,829,345,957,384,658,566,538,268,840,505,699,118,867,21,653,806,590,810,264,421,573,888,983,626,597,961,519,512,442,444,677,896,172,89,339,522,344,524,462,76,133,356,516,735,789,948,378,361,293,186,635,999,667,251,29,103,695,71,204,16,640,341,527,561,762,587,59,277,740,672,506,837,353,767,899,465,409,91,671,253,936,375,147,65,934,836,201,986,634,814,25,980,830,66,513,301,593,701,309,362,907,179,390,567,895,407,646,804,180,984,918,769,842,123,227,550,543,8,370,803,276,998,324,453,176,654,351,997,783,291,609,116,737,312,217,340,9,849,200,564,178,600,556,528,283,750,992,194,209,828,960,493,467,42,189,352,738,670,874,408,266,428,94,841,429,610,988,60,35,502,901,710,614,877,652,181,329,713,688,615,832,809,568,551,817,663,996,628,415,108,644,74,510,541,299,705,494,240,892,236,603,666,690,99,12,935,639,140,757,716,80,327,800,906,321,727,503,63,887,929,777,554,294,719,416,326,174,296,392,1,219,83,908,13,114,50,451,317,582,262,813,704,248,322,679,500,637,584,247,383,557,859,143,891,100,712,923,20,504,835,275,162,350,274,233,193,425,572,354,728,96,951,485,864,844,452,436,22,700,820,540,171,605,660,758,796,215,208,850,873,791,645,77,177,931,62,706,811,650,119,514,580,135,40,531,256,203,780,696,14,136,785,165,359,501,358,316,110,630,320,684,815,752,857,75,766,214,122,594,751,168,973,182,31,225,202,235,380,368,432,250,619,714,529,313,372,571,39,102,44,924,765,355,374,304,6,486,373,11,932,158,157,602,155,386,424,0,680,290,559,343,188,249,84,161,662,252,898,337,768,443,853,812,876,261,420,487,484,187,676,366,977,406,970,749,694,786,38,213,507,95,734,940,574,68,131,698,715,263,928,86,125,927,79,286,754,770,404,220,295,693,426,890,647,385,107,549,259,427,90,964,481,523,622,24,702,641,642,81,78,981,649,989,781,69,46,579,687,912,565,583,289,198]","arrowleft","","true","0","6","217","1000","[""0055_N1000_K0217_CLIQUE"",""0034_N1000_K0217_NOCLIQUE""]"
"","","","","","audio-keyboard-response","60","232683","0.0-54.0-0.0-1.0","","null","audio_feedback/right/coin01.mp3","null","","","","","0","6","217","1000","[""0055_N1000_K0217_CLIQUE"",""0034_N1000_K0217_NOCLIQUE""]"
"","","","","","canvas-keyboard-response","61","235117","0.0-55.0-0.0-0.0","","1046","","arrowleft","[780,889,82,176,276,37,539,616,924,478,909,389,399,4,933,756,367,352,404,594,91,829,538,860,240,943,848,469,87,396,453,208,419,142,409,813,32,946,311,555,844,48,548,101,838,261,696,894,993,416,282,683,973,464,86,849,564,474,569,607,333,940,505,903,248,960,855,698,166,897,772,18,710,497,627,712,771,755,118,777,587,775,911,476,792,72,622,167,281,482,765,624,841,470,614,200,509,45,812,362,149,141,967,259,372,397,125,645,293,428,935,884,50,572,716,769,187,393,250,954,273,976,959,317,852,638,515,827,315,600,268,542,363,784,205,759,96,744,301,110,735,366,657,869,718,957,173,858,439,968,774,997,52,341,342,190,76,854,969,767,433,656,249,371,803,835,874,408,267,761,646,781,47,908,870,724,904,951,932,43,613,195,326,79,826,455,618,15,620,828,971,776,312,365,182,165,649,431,24,694,229,225,95,115,563,585,330,181,955,126,485,936,436,44,146,659,381,343,103,135,346,554,760,593,939,411,800,549,279,778,709,519,986,758,984,583,303,440,605,667,5,483,691,336,395,972,148,682,171,218,917,823,806,617,235,705,850,817,107,472,636,983,128,58,287,557,529,720,974,384,764,319,81,78,264,550,6,797,257,390,948,459,351,369,191,262,794,64,851,521,489,295,454,94,666,104,51,819,339,545,490,502,92,54,856,807,512,573,451,463,928,887,418,401,334,981,914,347,21,227,306,446,595,237,179,198,377,674,31,530,923,260,147,286,606,12,577,741,124,164,977,834,297,793,504,929,956,597,150,628,810,405,304,586,892,252,388,36,443,508,288,534,277,501,890,38,963,325,374,610,382,836,728,506,53,403,77,425,596,457,842,309,422,210,242,498,531,331,253,770,912,830,0,379,272,354,528,479,23,547,634,224,241,159,232,847,139,71,982,881,151,987,938,127,155,157,730,688,653,466,999,703,546,488,905,558,998,816,513,680,359,20,675,857,308,589,843,349,296,215,866,194,34,701,450,442,278,402,337,226,153,798,373,17,919,130,70,221,305,745,245,74,394,170,88,357,57,435,119,353,358,3,220,995,69,460,7,527,361,239,551,46,579,22,270,121,25,737,681,949,809,19,441,603,1,183,625,722,584,438,723,246,552,143,910,766,175,406,426,140,641,452,360,13,796,978,635,640,692,417,915,310,136,543,637,340,931,783,59,559,133,236,523,355,430,145,335,318,532,944,178,42,184,877,608,174,320,952,496,574,726,507,89,686,299,815,30,234,811,676,839,448,822,106,704,247,398,169,964,654,255,588,762,458,942,84,926,154,14,896,916,658,300,920,989,327,753,598,795,663,630,499,432,799,172,324,706,950,163,10,702,742,55,731,329,447,661,785,61,387,714,313,321,707,423,665,930,323,413,161,644,901,11,662,83,878,873,40,876,503,802,35,113,872,582,934,996,748,719,992,192,832,222,73,814,214,298,202,991,979,571,392,33,980,203,621,953,875,524,93,465,263,473,328,212,965,619,456,314,669,604,871,62,434,122,376,266,747,97,467,400,541,886,642,177,711,535,427,429,693,526,265,650,660,729,385,410,684,888,90,269,699,937,773,238,553,137,791,292,421,258,900,975,491,168,672,2,211,922,302,685,927,895,117,581,808,990,380,216,918,180,197,285,947,100,591,721,116,818,790,233,743,391,945,289,615,864,576,256,350,695,284,209,492,291,49,787,556,322,961,217,647,461,825,68,580,230,599,98,244,750,789,853,162,565,525,837,560,652,880,493,189,882,902,468,520,114,243,717,611,700,733,60,941,219,514,958,105,383,206,517,378,592,671,763,544,757,134,891,883,111,879,444,643,500,962,673,231,788,67,751,85,213,185,160,898,727,462,251,368,970,75,690,275,913,201,26,445,567,632,9,533,738,677,56,271,893,670,484,885,609,570,511,186,407,204,562,80,925,8,906,537,629,41,859,494,487,108,156,65,29,736,739,752,138,228,651,99,602,348,477,518,831,768,732,338,862,16,345,782,475,845,678,274,370,356,283,804,568,861,725,966,713,223,746,749,664,66,188,129,846,899,375,27,486,754,863,648,307,316,63,344,39,28,196,994,386,779,522,679,631,824,193,540,921,152,708,578,144,988,424,689,332,907,364,480,639,412,294,601,626,471,131,420,821,495,254,481,437,199,575,655,112,786,590,123,566,132,668,158,820,840,120,510,687,612,734,536,740,867,415,805,985,102,865,868,833,633,290,449,516,715,207,109,697,561,623,414,801,280]","arrowleft","","true","0","7","217","1000","[""0083_N1000_K0217_CLIQUE"",""0091_N1000_K0217_NOCLIQUE""]"
"","","","","","audio-keyboard-response","62","236103","0.0-55.0-0.0-1.0","","null","audio_feedback/right/coin01.mp3","null","","","","","0","7","217","1000","[""0083_N1000_K0217_CLIQUE"",""0091_N1000_K0217_NOCLIQUE""]"
"","","","","","canvas-keyboard-response","63","238535","0.0-56.0-0.0-0.0","","980","","arrowright","[80,759,721,19,726,289,681,455,317,628,916,492,179,7,723,447,683,732,637,241,88,130,607,319,523,18,604,525,933,612,397,881,494,929,388,977,159,119,76,625,24,340,466,144,729,21,310,969,111,975,786,693,416,171,377,281,630,146,885,203,824,148,280,439,207,641,205,244,276,571,860,279,593,888,511,217,658,15,60,412,445,131,915,767,928,189,143,474,469,357,936,970,372,433,68,984,544,229,216,566,639,620,208,381,161,590,39,990,300,905,657,349,818,284,570,955,67,363,44,971,684,102,903,578,158,373,777,724,654,467,642,380,473,238,227,274,711,952,756,782,734,799,956,390,330,34,211,379,957,922,787,311,714,687,133,692,728,659,384,518,655,118,487,418,552,862,861,747,180,294,140,719,459,526,232,74,844,265,879,338,156,951,808,556,501,613,42,789,585,249,84,910,29,260,965,872,28,429,934,443,536,181,826,435,890,938,195,858,514,948,538,365,629,306,481,183,859,545,753,72,93,266,23,323,441,574,675,106,803,177,598,314,557,615,647,600,346,145,605,219,239,845,198,97,517,453,391,889,13,773,840,547,114,899,814,454,77,263,622,57,46,738,920,664,291,404,273,555,584,448,257,677,254,8,417,735,223,982,475,573,321,56,234,512,737,870,524,553,49,790,345,342,702,250,680,577,906,378,271,462,591,347,31,945,967,350,301,763,812,685,359,408,465,733,700,798,370,816,55,137,563,282,794,896,228,648,61,701,650,204,222,653,188,25,312,498,935,841,452,83,101,134,240,811,401,150,398,64,898,431,983,353,627,927,299,746,486,783,947,166,804,17,993,298,807,986,886,718,739,668,186,618,316,212,863,864,764,14,780,463,614,972,932,9,313,532,902,38,213,410,649,727,26,959,663,339,10,252,973,62,79,958,51,516,328,87,802,33,575,479,793,788,421,897,849,476,32,27,893,819,968,477,251,623,876,484,960,230,617,324,823,592,141,432,235,765,601,2,489,527,193,35,913,831,937,616,293,99,471,36,670,749,415,949,0,580,742,95,247,689,919,96,108,531,245,132,535,645,761,900,646,987,673,483,626,904,988,364,136,199,706,124,546,817,632,200,636,743,586,191,581,162,835,980,974,490,90,558,795,468,112,360,290,470,909,745,822,976,190,333,800,63,295,784,676,407,662,931,878,624,45,255,155,871,383,100,422,665,374,175,341,781,503,182,493,651,752,703,268,597,196,502,736,989,510,791,504,774,635,371,640,22,722,805,923,451,103,688,16,428,567,248,925,599,832,533,534,939,41,399,869,224,587,707,458,644,894,537,843,731,485,367,305,122,3,813,978,261,884,907,715,505,741,954,246,877,43,772,998,351,519,796,210,116,801,926,184,464,226,272,588,997,966,220,236,762,151,135,748,30,540,633,568,115,66,315,595,461,921,152,326,847,686,542,109,851,520,497,603,730,619,873,449,820,75,678,771,174,149,912,285,50,309,94,286,104,821,142,411,768,176,914,690,515,376,482,495,996,895,740,442,233,839,270,120,868,264,85,751,815,160,850,355,930,602,366,71,941,579,434,430,682,810,610,985,107,343,725,666,669,901,672,47,225,185,778,561,242,167,302,352,126,335,423,368,393,369,940,125,427,564,405,139,1,209,539,508,562,695,992,506,165,950,292,81,513,147,202,652,127,70,113,163,710,528,173,201,386,303,5,409,880,387,157,991,425,875,554,206,6,720,882,218,117,402,192,891,215,253,744,852,258,197,694,797,917,713,52,287,572,712,138,867,48,792,656,385,40,194,846,779,478,308,530,396,129,621,981,375,91,828,73,661,892,329,776,953,770,717,631,262,551,488,460,961,924,332,456,509,12,609,105,168,331,53,608,698,874,999,275,318,389,121,334,979,419,444,237,674,92,395,708,58,854,697,277,337,834,548,78,269,842,450,440,69,256,836,541,438,361,750,221,769,354,853,86,278,833,963,583,446,437,4,848,596,760,11,37,243,582,296,857,866,394,716,962,327,403,507,413,307,806,785,414,838,499,231,424,964,855,696,344,560,994,691,154,638,400,643,827,589,214,472,757,436,699,259,883,918,565,856,829,65,549,766,480,830,529,356,362,358,491,392,82,667,594,98,943,169,500,550,128,521,288,304,705,320,59,54,825,170,522,679,123,187,634,336,348,325,420,382,809,559,704,153,671,606,995,283,576,496,946,887,110,709,20,406,942,660,267,172,426,775,908,543,754,569,865,457,297,178,89,837,755,322,164,944,758,911,611]","arrowright","","true","0","8","200","1000","[""0047_N1000_K0200_NOCLIQUE"",""0002_N1000_K0200_CLIQUE""]"
"","","","","","audio-keyboard-response","64","239523","0.0-56.0-0.0-1.0","","null","audio_feedback/right/coin01.mp3","null","","","","","0","8","200","1000","[""0047_N1000_K0200_NOCLIQUE"",""0002_N1000_K0200_CLIQUE""]"
"","","","","","canvas-keyboard-response","65","241874","0.0-57.0-0.0-0.0","","1065","","arrowleft","[460,631,819,708,382,707,746,183,690,182,785,797,904,868,897,575,891,244,13,400,359,332,205,533,181,444,384,18,435,994,818,620,623,917,259,106,647,439,37,539,884,702,760,206,628,576,378,688,560,280,774,864,230,176,266,518,299,527,76,269,761,300,780,883,996,318,710,278,836,387,902,213,33,350,871,433,701,857,921,145,456,609,427,270,831,389,235,687,694,744,221,580,216,722,380,937,90,670,253,674,788,853,268,79,554,799,626,944,748,273,424,721,524,865,789,315,38,250,174,276,952,745,706,64,139,399,473,69,135,469,294,74,80,425,162,214,935,293,345,169,913,876,158,477,287,866,842,809,882,881,22,759,591,346,656,740,52,832,430,958,157,816,600,924,202,979,907,358,951,984,189,466,960,830,946,961,786,45,685,824,117,982,53,927,179,594,879,833,225,289,538,137,210,257,617,827,771,775,9,224,344,840,598,111,447,530,795,542,133,869,146,78,719,684,791,227,223,955,858,357,334,164,15,165,962,401,514,302,942,782,665,763,767,171,310,712,119,910,953,246,521,404,27,5,212,693,195,639,311,142,50,407,655,557,229,148,862,672,486,875,595,909,820,762,602,191,920,950,112,32,489,242,618,564,660,360,3,451,544,363,134,899,127,582,351,700,431,863,381,753,680,211,173,556,324,60,817,890,562,116,194,86,825,316,587,873,160,19,509,922,54,826,737,41,800,850,184,653,798,874,272,622,985,464,353,238,964,843,619,988,856,911,166,349,967,91,889,452,72,201,569,292,777,317,815,686,70,29,512,443,699,56,666,896,939,2,735,232,604,371,934,596,644,497,823,428,905,517,506,437,383,698,264,102,252,870,284,650,419,73,14,566,630,220,779,122,928,188,208,130,945,756,614,341,720,532,716,96,488,561,255,143,508,661,971,649,372,478,20,828,695,849,571,503,94,553,458,472,432,714,110,118,144,331,303,198,841,973,768,806,821,254,68,479,678,711,976,312,855,365,482,459,810,251,140,545,703,132,848,536,440,167,429,794,474,36,392,901,526,480,319,900,663,790,970,298,730,470,150,802,67,417,414,941,743,71,51,965,919,337,966,159,829,715,48,555,49,747,125,25,837,723,981,327,679,57,627,773,28,228,624,543,209,308,613,552,975,938,207,172,420,438,734,529,972,410,793,93,222,999,239,386,12,46,490,914,516,925,846,519,523,369,388,275,193,906,328,42,625,107,633,929,47,648,492,599,912,851,551,507,58,421,811,247,758,893,21,681,494,196,750,998,476,10,304,391,755,995,645,322,923,947,347,362,175,697,691,352,161,983,203,525,781,77,989,968,813,563,288,792,81,418,499,992,764,805,642,219,593,915,141,749,271,696,200,136,6,231,487,704,733,379,323,940,765,356,415,368,306,394,282,342,234,109,313,933,11,991,377,274,731,23,396,485,59,807,531,673,741,880,641,957,163,403,515,954,621,335,852,82,664,393,153,245,787,892,713,550,502,540,104,354,491,803,709,217,505,729,35,446,103,131,454,757,568,123,34,956,572,151,974,986,636,326,692,584,62,297,574,4,918,330,812,436,450,903,963,835,861,659,43,736,233,872,549,839,838,885,504,632,643,197,930,977,528,683,441,717,725,113,366,601,89,320,0,199,422,728,92,1,932,155,170,513,475,442,248,16,682,592,374,493,640,455,567,990,705,511,256,579,597,305,370,784,416,980,808,766,541,61,634,329,834,75,301,895,847,453,296,152,547,611,241,804,565,291,218,190,726,361,608,30,129,295,742,177,192,894,886,605,537,610,423,265,98,654,689,156,581,573,677,375,154,283,237,307,168,31,668,724,662,877,936,657,128,88,845,448,325,738,468,397,66,878,500,510,260,376,100,355,333,586,85,588,658,558,84,676,535,844,26,99,652,385,406,854,801,343,187,484,124,615,481,263,772,412,577,959,637,445,948,606,916,732,969,822,776,583,997,754,338,267,926,462,314,457,651,114,578,24,461,40,63,667,8,589,55,120,101,364,405,751,770,590,534,226,987,978,483,279,585,149,498,83,949,367,520,607,908,336,898,727,546,108,44,426,147,783,559,646,115,281,769,867,449,373,548,465,496,603,215,616,402,888,249,638,501,262,434,859,629,522,185,796,931,97,993,321,495,309,243,285,675,186,178,814,752,261,277,258,408,860,467,121,570,887,17,286,411,87,126,718,671,635,240,739,778,236,105,180,138,39,340,7,348,669,463,398,390,95,409,290,65,612,395,471,339,204,943,413]","arrowleft","","true","0","9","200","1000","[""0077_N1000_K0200_CLIQUE"",""0068_N1000_K0200_NOCLIQUE""]"
"","","","","","audio-keyboard-response","66","242863","0.0-57.0-0.0-1.0","","null","audio_feedback/right/coin01.mp3","null","","","","","0","9","200","1000","[""0077_N1000_K0200_CLIQUE"",""0068_N1000_K0200_NOCLIQUE""]"
"","","","","","canvas-keyboard-response","67","245143","0.0-58.0-0.0-0.0","","1018","","arrowleft","[867,198,595,175,500,406,142,4,572,130,194,30,2,110,519,491,404,978,464,189,429,735,276,821,74,643,20,960,200,683,269,769,420,805,32,192,25,620,667,387,564,353,415,542,262,789,855,432,575,600,826,963,164,973,713,63,67,714,926,147,965,156,81,327,644,967,208,604,330,503,547,296,691,825,925,408,75,552,302,307,143,688,533,573,751,929,874,470,123,559,481,633,378,866,434,316,60,299,340,587,968,141,958,245,290,238,982,120,687,407,684,931,887,179,555,293,467,814,579,585,996,831,910,405,723,632,610,583,34,635,440,545,112,792,951,954,530,661,449,6,629,722,716,442,152,57,736,686,540,423,516,875,345,630,648,155,718,157,923,947,29,837,850,310,314,727,626,513,990,42,163,51,507,72,53,218,482,964,138,71,696,932,320,213,930,705,457,645,617,121,487,551,561,33,936,806,703,283,845,915,877,40,288,392,592,399,229,849,671,193,494,186,813,654,734,593,693,92,352,878,764,270,797,343,991,944,244,0,886,210,203,454,534,901,627,451,556,520,970,677,914,94,380,460,239,853,55,977,377,7,900,368,162,811,90,810,436,992,859,22,678,569,637,988,486,741,760,599,861,458,48,709,126,188,981,401,778,397,298,816,342,749,16,858,172,840,848,461,642,46,50,638,261,358,541,309,78,337,607,919,902,625,495,699,69,332,413,611,984,935,214,804,815,917,115,994,894,363,708,695,114,598,315,995,740,781,998,872,101,945,897,371,670,927,483,597,19,608,847,247,724,602,240,15,854,578,252,76,474,79,986,472,989,549,820,653,27,928,159,911,522,17,562,222,329,742,150,205,698,830,590,21,834,374,83,788,664,577,38,241,763,557,574,104,893,450,447,937,493,113,812,273,294,824,1,331,673,571,880,391,325,236,170,235,437,857,663,762,707,550,843,536,49,206,107,833,385,171,212,567,787,35,657,224,13,685,827,44,566,835,140,655,514,779,133,525,80,782,466,775,892,515,396,801,537,527,479,972,613,73,680,898,176,317,284,955,584,480,808,772,177,839,701,876,773,505,220,475,308,455,187,386,802,768,934,165,478,232,961,180,576,14,181,196,260,745,856,658,139,412,532,891,295,737,803,265,668,209,783,622,3,255,829,535,376,726,606,190,336,300,794,719,313,202,77,178,717,743,291,129,628,870,565,646,490,948,616,488,430,127,359,289,634,439,135,41,207,445,798,28,591,568,754,217,869,271,588,756,755,375,234,905,306,144,795,999,465,987,939,729,259,767,221,233,419,777,499,148,8,957,54,122,286,131,539,615,338,949,106,339,145,679,303,167,350,108,624,832,614,838,184,881,58,784,864,426,580,739,700,715,710,328,720,952,31,421,497,326,237,444,621,682,418,605,618,463,785,485,37,125,65,766,398,301,82,425,603,256,292,272,728,997,510,158,842,641,70,93,770,266,39,793,979,64,281,890,651,26,477,758,538,119,904,146,149,956,312,640,191,943,248,852,278,704,258,409,250,253,441,197,609,594,665,746,471,354,36,183,351,459,807,323,263,888,462,712,969,771,154,669,953,68,88,822,117,279,889,169,251,730,12,304,983,526,333,448,390,349,321,311,639,18,558,201,582,95,518,676,962,433,414,91,389,393,216,452,492,246,346,531,725,844,601,524,153,96,868,570,976,109,9,384,672,468,702,264,173,372,318,98,105,161,410,791,424,400,47,348,367,174,554,865,395,52,711,362,128,501,666,111,817,528,747,922,166,619,985,659,512,862,369,851,431,297,43,906,381,364,879,137,732,823,918,506,883,780,204,863,896,446,752,361,921,5,357,215,940,132,347,254,365,689,650,993,920,836,416,219,908,242,427,612,924,623,636,796,199,907,761,417,100,85,66,227,456,275,809,118,860,774,950,382,846,800,553,675,819,895,341,225,99,517,649,786,971,980,544,394,86,509,790,529,909,438,690,521,305,280,818,903,249,453,388,733,765,268,959,543,498,168,243,873,882,496,344,370,10,489,257,324,411,899,975,136,366,151,586,504,267,841,589,334,828,185,469,11,731,360,681,871,230,356,473,753,277,24,966,228,974,335,759,102,379,941,721,195,87,443,912,322,631,744,373,97,884,61,226,757,596,435,913,885,231,476,656,422,662,428,647,116,502,62,652,523,738,223,697,508,287,211,84,511,581,933,548,319,748,916,124,694,546,282,799,402,706,274,403,56,45,938,484,182,946,692,89,560,103,160,285,750,776,674,563,660,383,134,59,355,942,23]","arrowleft","","true","0","10","183","1000","[""0004_N1000_K0183_CLIQUE"",""0090_N1000_K0183_NOCLIQUE""]"
"","","","","","audio-keyboard-response","68","246143","0.0-58.0-0.0-1.0","","null","audio_feedback/right/coin01.mp3","null","","","","","0","10","183","1000","[""0004_N1000_K0183_CLIQUE"",""0090_N1000_K0183_NOCLIQUE""]"
"","","","","","canvas-keyboard-response","69","248570","0.0-59.0-0.0-0.0","","954","","arrowleft","[551,906,711,28,313,634,925,659,965,123,199,547,7,364,510,847,206,537,742,665,801,386,167,376,632,477,237,64,766,233,805,575,42,821,126,859,958,606,273,715,502,851,975,945,102,398,546,724,210,11,877,776,175,701,940,930,663,676,150,872,513,841,622,857,762,197,887,587,166,583,768,16,472,43,733,336,14,541,194,642,829,990,931,125,637,388,418,598,588,878,565,285,111,76,686,105,590,88,682,481,180,582,907,161,299,526,786,200,97,961,836,946,702,903,936,967,375,788,719,17,497,40,712,18,828,563,179,953,5,745,204,539,973,254,630,353,45,292,972,116,939,962,428,888,302,769,538,192,684,335,685,60,135,892,269,423,810,133,666,727,561,834,983,295,450,562,99,20,341,370,44,355,657,607,767,725,615,650,461,69,0,373,672,604,532,360,98,942,866,960,39,250,496,876,478,662,679,408,280,330,480,522,799,459,624,10,989,380,787,775,617,391,139,628,9,435,363,755,716,154,816,244,737,303,826,63,928,425,507,935,687,893,881,397,109,263,820,345,959,818,838,417,899,500,393,8,326,917,203,452,545,654,955,151,854,114,518,646,406,73,839,58,420,354,978,885,625,540,773,999,258,211,140,731,50,770,758,555,896,800,283,223,971,473,739,400,107,396,748,358,980,366,564,573,371,29,136,487,385,837,709,901,593,853,185,735,165,589,704,202,379,921,846,832,322,579,964,121,142,995,392,884,247,338,886,789,309,879,288,262,240,382,690,449,597,985,221,664,343,797,159,346,32,475,243,85,361,558,59,66,508,572,938,796,674,122,861,626,261,113,164,911,909,976,149,920,552,441,253,750,409,466,193,103,521,493,119,631,439,544,232,321,850,430,38,890,499,661,937,115,168,183,189,603,163,681,315,970,814,304,36,641,327,187,689,793,402,272,868,947,781,498,78,112,172,862,633,440,706,848,609,683,344,404,434,529,644,217,21,356,2,298,251,858,415,697,536,516,692,852,414,485,811,754,162,600,897,117,910,509,323,62,527,491,23,25,736,143,729,677,744,924,104,174,46,72,957,54,969,12,636,35,24,241,774,248,281,146,586,977,856,488,996,864,176,93,934,463,31,301,342,458,275,83,602,53,778,741,817,205,454,407,652,357,300,804,30,411,534,740,746,147,65,87,267,785,523,265,951,218,779,286,900,619,464,372,82,252,294,553,981,310,49,875,79,148,198,992,933,246,668,673,718,963,515,621,918,756,629,618,830,389,186,889,416,403,234,181,549,137,61,860,216,649,201,771,308,608,569,688,1,601,484,290,594,86,465,279,419,867,219,432,334,443,809,577,448,405,968,365,220,997,348,231,993,108,840,843,67,395,333,845,124,703,988,560,660,808,982,714,260,6,191,482,524,919,984,68,212,592,726,48,160,698,520,707,444,749,627,479,311,908,514,337,339,95,399,377,506,728,580,548,80,956,825,623,691,738,612,505,913,319,128,469,991,442,316,264,489,171,390,37,291,708,757,944,26,880,591,132,613,474,242,557,384,101,647,41,141,720,278,314,55,460,277,870,4,511,790,71,923,369,431,349,723,490,570,596,270,249,950,713,394,429,227,751,525,822,823,27,616,352,813,74,595,130,873,759,188,307,486,578,226,639,77,182,614,328,271,13,57,705,576,794,530,791,209,256,297,426,710,190,844,457,519,268,153,765,693,170,453,883,412,433,835,19,777,196,351,986,802,456,914,239,680,467,543,635,47,831,611,894,266,806,75,501,648,325,503,331,56,904,367,656,437,882,495,761,696,289,178,760,669,207,610,359,905,15,387,235,213,517,236,476,470,468,305,51,329,89,169,274,694,795,446,127,721,763,317,585,932,225,695,542,671,96,865,245,383,131,259,764,471,173,157,722,214,155,368,340,381,803,208,605,533,230,620,772,574,780,952,927,974,257,438,670,895,792,422,284,550,782,926,559,494,783,52,22,455,567,156,110,869,581,222,224,118,807,145,158,215,374,842,987,34,238,120,743,84,424,152,556,296,678,954,413,798,177,144,70,753,915,658,91,998,195,812,640,3,827,730,92,512,833,138,228,312,276,410,129,898,106,863,941,912,528,747,401,638,306,815,421,566,320,949,347,943,752,734,427,824,350,994,445,504,966,451,651,700,378,184,492,483,293,81,855,732,568,929,134,916,717,362,891,100,531,667,874,948,599,643,699,645,255,849,819,675,287,94,655,33,447,229,784,871,318,554,584,902,462,90,535,282,922,436,571,653,324,332,979]","arrowleft","","true","0","11","183","1000","[""0077_N1000_K0183_CLIQUE"",""0056_N1000_K0183_NOCLIQUE""]"
"","","","","","audio-keyboard-response","70","249562","0.0-59.0-0.0-1.0","","null","audio_feedback/right/coin01.mp3","null","","","","","0","11","183","1000","[""0077_N1000_K0183_CLIQUE"",""0056_N1000_K0183_NOCLIQUE""]"
"","","","","","canvas-keyboard-response","71","251758","0.0-60.0-0.0-0.0","","929","","arrowright","[633,180,777,391,375,34,550,578,853,381,653,793,694,345,807,190,379,10,615,779,935,354,915,877,620,435,583,238,618,621,722,69,913,394,285,858,478,324,135,374,361,402,40,662,48,343,958,332,903,70,393,678,553,236,232,272,863,745,432,510,39,441,871,900,988,882,289,616,416,659,682,785,143,97,649,488,868,987,548,691,577,601,509,157,931,237,776,657,817,322,62,14,392,976,275,623,249,644,852,537,462,137,922,746,254,334,551,692,481,355,943,872,750,774,156,507,597,886,681,310,927,467,769,734,426,140,83,894,742,587,611,8,306,1,498,385,902,741,296,113,52,461,85,22,224,168,763,999,513,204,997,995,387,527,114,501,803,199,624,604,468,411,271,356,464,309,549,421,68,725,368,348,967,808,363,865,191,103,201,679,924,711,347,822,335,827,768,425,370,487,541,866,962,451,963,517,994,836,78,366,648,24,9,690,276,192,37,594,524,670,547,606,277,806,165,504,92,919,752,311,321,558,873,888,173,755,851,13,139,826,430,557,565,86,811,920,710,166,75,266,226,280,739,942,778,780,260,688,640,297,2,77,647,609,534,854,111,661,106,472,205,795,883,707,792,643,88,298,859,325,849,463,470,152,727,53,596,67,598,178,991,771,174,51,720,54,203,571,646,486,349,544,815,459,539,724,542,870,680,908,211,483,80,985,437,945,219,200,241,622,248,757,581,27,317,124,364,405,223,217,723,717,215,493,207,986,82,627,960,479,41,536,87,61,610,458,212,198,784,912,845,25,179,72,245,313,605,367,837,259,914,918,329,989,255,932,634,589,315,521,983,440,130,148,195,419,857,969,887,687,229,147,975,841,709,650,629,23,957,502,131,210,353,401,639,797,35,384,341,155,588,696,972,107,637,592,652,423,153,373,756,439,252,737,33,250,202,305,846,269,359,697,222,708,761,713,193,58,50,861,330,482,47,529,685,635,182,567,638,800,357,26,243,984,206,231,840,860,436,749,930,186,898,525,73,964,91,36,164,184,491,955,447,19,406,497,689,109,312,603,684,89,244,138,480,743,469,560,389,751,434,555,397,520,651,413,531,424,446,94,576,316,590,671,566,163,947,980,31,127,992,117,476,693,128,941,388,64,575,937,56,30,660,864,407,608,775,214,145,45,850,892,719,342,161,116,471,484,794,431,378,142,814,904,607,570,475,580,49,101,758,194,55,847,253,442,362,586,828,59,911,569,809,290,301,28,154,108,453,176,251,196,299,599,617,512,63,798,954,449,427,582,66,552,584,328,619,242,396,829,438,636,818,146,787,907,925,21,910,188,879,890,307,614,731,968,99,821,699,286,810,667,274,965,326,445,455,917,160,956,340,246,579,377,352,695,369,133,454,563,625,805,44,239,443,753,706,403,568,247,302,893,294,18,673,951,738,122,233,308,415,823,323,665,125,628,465,901,656,303,561,675,265,654,71,730,365,966,100,543,875,538,121,802,477,726,770,263,213,57,428,104,959,177,457,626,672,270,110,172,515,938,831,630,732,181,674,183,562,331,909,974,789,869,973,339,612,564,382,554,136,700,574,701,880,283,134,292,228,516,466,3,961,408,79,683,848,409,371,889,602,573,729,351,526,545,159,418,703,762,813,400,981,264,760,291,499,977,799,216,261,112,218,358,452,783,830,905,492,386,120,786,949,234,819,412,824,380,715,495,208,906,874,796,885,327,95,390,950,664,404,360,123,433,666,899,702,716,187,764,773,150,532,65,782,12,714,126,456,417,835,540,765,921,645,591,225,876,993,728,816,766,144,600,38,98,450,593,705,337,929,736,754,881,336,175,946,6,982,838,790,372,257,420,744,523,677,338,46,595,748,613,287,262,953,4,96,518,346,514,663,414,704,32,948,240,29,668,171,105,825,916,151,632,642,293,940,735,511,333,572,669,767,686,288,896,350,220,11,284,398,149,15,60,273,383,474,546,855,0,934,878,895,399,832,170,718,522,862,891,158,295,834,235,979,990,998,422,90,43,129,971,804,162,189,282,395,473,843,676,721,791,102,279,867,344,585,485,978,256,320,281,448,169,185,42,839,319,528,698,5,500,84,812,844,842,494,944,16,923,314,489,318,20,936,897,820,530,952,278,268,506,856,712,460,641,733,772,227,197,519,258,801,221,429,74,304,132,556,508,970,631,93,759,490,376,267,533,7,939,788,505,926,996,81,833,118,17,444,503,658,410,167,535,559,300,933,496,884,740,115,209,655,747,76,141,119,781,928,230]","arrowright","","true","0","12","167","1000","[""0088_N1000_K0167_NOCLIQUE"",""0011_N1000_K0167_CLIQUE""]"
"","","","","","audio-keyboard-response","72","252742","0.0-60.0-0.0-1.0","","null","audio_feedback/right/coin01.mp3","null","","","","","0","12","167","1000","[""0088_N1000_K0167_NOCLIQUE"",""0011_N1000_K0167_CLIQUE""]"
"","","","","","canvas-keyboard-response","73","254945","0.0-61.0-0.0-0.0","","888","","arrowright","[827,417,486,863,277,952,913,230,70,985,472,727,340,805,105,929,504,599,842,478,437,344,360,509,881,267,421,302,120,79,906,911,848,361,990,517,946,432,746,19,97,587,921,203,131,256,119,720,824,475,66,907,221,972,832,483,16,333,88,553,382,986,903,909,771,61,370,566,735,975,142,303,226,108,770,263,740,339,81,215,5,165,822,540,583,538,138,114,121,40,744,969,648,27,225,274,415,934,287,865,691,24,535,43,276,814,670,503,581,680,147,37,582,15,457,887,993,697,679,111,378,116,45,507,85,182,156,854,450,711,782,944,707,112,422,558,242,511,994,704,795,597,650,891,402,233,461,275,136,224,20,272,13,266,779,919,628,80,895,180,400,282,455,328,627,606,310,609,652,29,742,47,269,987,442,71,334,902,200,123,530,494,651,94,488,412,413,551,420,872,576,689,294,611,730,521,654,209,501,710,681,841,637,544,925,129,42,930,7,812,307,364,645,764,904,434,520,104,860,177,430,490,185,86,794,122,755,531,82,35,819,862,127,250,139,873,810,337,331,667,886,496,306,882,33,843,384,539,912,424,675,164,888,567,261,357,316,639,622,638,341,955,6,552,244,425,717,247,732,257,213,788,313,991,612,563,791,931,890,533,8,958,436,981,445,301,692,718,117,270,374,208,46,414,896,634,664,495,963,219,976,506,93,762,271,92,465,992,426,833,816,229,36,197,264,173,191,342,206,677,970,372,954,908,406,30,281,456,51,861,500,905,831,459,103,84,55,448,922,195,133,594,237,550,228,646,527,877,474,26,492,110,491,580,564,78,268,58,859,571,56,152,403,362,636,201,726,476,641,470,616,76,278,995,957,169,75,593,766,443,356,508,53,978,320,172,144,236,179,554,469,988,145,134,109,168,977,620,166,878,64,573,953,519,345,477,98,858,48,332,900,729,739,722,577,960,584,327,502,279,60,657,297,774,96,12,460,522,780,240,557,31,355,666,202,728,286,518,534,404,920,241,572,632,591,738,255,673,125,973,901,235,419,296,363,115,87,733,175,849,699,688,252,69,941,454,305,452,624,885,130,386,49,132,617,343,938,643,532,601,671,17,253,792,696,487,789,892,649,590,561,608,684,899,390,10,603,607,546,605,352,349,962,889,830,176,669,864,395,747,629,621,772,808,759,734,347,163,299,668,853,358,850,875,186,181,618,647,381,196,868,662,947,318,44,194,559,323,663,9,626,785,159,34,959,857,254,600,2,380,820,737,542,285,471,484,260,874,575,687,67,942,723,118,326,763,128,170,429,0,712,216,801,846,690,418,376,698,95,433,512,760,982,825,192,188,389,898,653,89,222,354,817,787,884,63,497,933,336,568,524,569,866,83,464,736,828,989,586,702,314,489,411,721,630,932,807,716,750,371,161,183,232,317,592,845,935,52,928,238,399,262,54,615,214,514,408,409,783,396,463,800,405,916,348,428,956,983,468,761,949,915,218,74,724,642,90,578,291,847,157,743,280,672,984,190,751,234,640,485,258,610,62,966,803,745,798,4,731,837,100,950,686,246,369,706,570,818,251,574,894,596,869,678,416,786,943,162,146,41,77,467,398,473,462,516,57,367,322,939,523,528,536,189,39,453,259,855,914,22,529,700,171,377,387,265,99,410,879,68,353,701,431,836,784,407,797,73,965,537,709,126,346,871,298,997,137,143,65,481,401,199,813,198,926,167,682,876,427,655,802,283,23,288,880,619,335,140,499,708,656,220,397,549,703,440,479,974,604,50,753,829,625,311,373,844,665,351,239,589,560,644,851,350,449,365,741,951,513,676,548,661,937,38,713,543,141,135,579,375,719,835,210,823,918,273,633,393,290,870,295,980,101,18,423,154,839,329,752,961,631,289,153,148,595,515,674,852,248,781,91,212,936,11,330,893,438,910,547,927,178,446,444,391,300,556,217,585,541,385,388,359,526,392,856,231,614,1,756,366,964,160,793,447,249,304,705,790,768,325,715,834,748,174,207,695,967,379,659,811,113,150,458,243,498,193,3,525,897,324,924,660,184,778,555,799,466,602,996,439,312,773,25,227,315,588,28,998,14,308,383,940,948,635,21,693,106,441,292,714,838,435,205,321,683,155,505,840,758,510,319,565,979,806,694,923,187,151,493,598,658,309,623,245,775,767,482,480,883,394,613,917,32,777,999,769,204,749,149,821,293,826,338,776,796,757,754,124,804,107,451,867,211,158,815,59,72,545,971,945,223,284,809,968,102,562,368,725,685,765]","arrowright","","true","0","13","167","1000","[""0053_N1000_K0167_NOCLIQUE"",""0086_N1000_K0167_CLIQUE""]"
"","","","","","audio-keyboard-response","74","255943","0.0-61.0-0.0-1.0","","null","audio_feedback/right/coin01.mp3","null","","","","","0","13","167","1000","[""0053_N1000_K0167_NOCLIQUE"",""0086_N1000_K0167_CLIQUE""]"
"","","","","","canvas-keyboard-response","75","258334","0.0-62.0-0.0-0.0","","945","","arrowright","[967,507,401,328,702,651,746,726,143,92,200,13,145,665,649,820,173,923,377,864,77,983,230,119,823,585,465,550,338,824,569,142,273,72,989,171,98,126,28,282,870,21,236,888,334,500,796,780,638,152,557,669,626,294,427,111,615,293,156,818,776,917,877,779,159,760,363,180,734,365,428,107,80,919,810,530,786,48,693,495,115,885,139,185,431,574,510,628,105,340,522,520,792,473,71,692,768,742,19,70,208,449,499,296,306,32,829,981,403,8,709,833,317,233,194,918,11,20,279,237,195,908,252,389,789,970,439,926,502,164,957,461,110,511,147,980,457,729,263,719,822,561,196,676,151,141,766,411,183,469,467,219,543,598,654,837,972,57,724,619,535,607,697,349,207,240,566,344,723,827,387,682,717,705,291,769,503,158,169,592,315,925,988,284,94,256,609,134,35,210,791,932,900,125,61,386,582,916,506,623,880,802,121,172,163,611,841,670,355,907,18,477,408,53,63,706,199,30,865,580,944,257,45,466,683,16,536,229,861,805,433,36,410,612,806,534,66,764,445,782,999,648,678,755,117,664,558,747,647,799,54,518,108,876,564,696,539,129,205,671,595,261,406,356,963,940,656,55,186,939,270,953,716,688,264,422,740,327,122,718,381,204,228,622,578,695,182,859,329,571,374,956,743,704,480,836,96,46,505,5,25,673,976,579,732,345,887,202,83,419,396,630,855,170,188,286,700,581,470,931,639,762,845,576,554,882,593,276,815,785,216,118,347,51,412,856,213,653,112,821,895,913,905,485,588,326,443,360,624,862,875,137,966,67,177,109,292,174,346,301,893,0,368,993,894,74,817,22,190,987,59,484,658,116,7,761,176,184,663,88,969,2,15,302,680,800,247,509,851,494,587,3,691,380,274,975,964,643,618,816,350,546,426,308,866,459,224,903,193,123,713,979,756,212,929,486,456,573,930,354,914,268,390,235,898,884,790,997,687,489,584,826,460,157,391,376,471,181,567,684,984,62,632,577,463,40,4,596,968,801,76,388,314,560,995,570,399,97,600,160,572,848,788,146,106,745,372,468,533,127,335,420,556,140,91,438,672,770,86,435,444,12,342,384,759,715,430,262,604,124,198,633,911,915,548,144,307,879,834,318,148,971,496,763,60,283,721,857,757,440,986,272,232,990,867,835,359,498,735,838,843,369,322,515,563,278,120,337,132,542,694,937,448,873,64,667,166,662,936,50,589,725,436,103,878,814,393,516,659,442,290,417,863,565,946,778,364,130,479,839,85,474,214,29,133,452,501,583,634,842,227,179,266,218,809,758,811,631,58,211,371,75,310,259,952,405,793,675,231,928,912,488,299,287,244,104,959,392,320,331,689,497,325,906,221,68,168,951,772,881,300,519,441,831,385,708,305,250,808,992,267,197,891,514,215,418,825,153,629,650,620,767,246,367,733,597,47,635,241,660,309,402,404,357,750,23,81,416,131,434,531,324,242,251,974,529,323,43,222,370,781,853,897,922,79,868,38,774,304,490,253,206,285,128,686,248,44,149,423,189,39,493,613,1,34,528,192,941,395,429,677,844,89,998,973,537,275,642,714,175,90,910,114,599,614,414,319,504,754,9,187,478,978,784,101,150,661,532,321,958,513,927,954,739,985,239,594,56,6,93,641,703,482,41,730,921,798,794,553,712,361,358,14,950,710,920,446,476,260,341,886,42,351,295,610,425,312,154,541,87,27,464,99,674,397,904,336,454,602,575,765,424,846,526,644,298,606,883,383,394,858,945,223,783,860,982,258,720,892,749,348,82,545,492,483,450,741,17,201,666,280,269,681,523,625,869,382,871,407,621,775,804,398,73,413,333,744,487,795,942,807,608,605,960,840,527,421,889,352,552,167,378,65,812,316,226,640,311,736,551,637,432,948,646,455,787,339,924,330,203,947,451,191,165,819,437,458,366,698,847,934,10,415,731,288,752,938,909,854,830,113,161,49,225,728,303,849,707,524,162,657,220,668,977,991,777,568,297,517,828,217,813,701,586,238,962,899,69,935,475,249,289,773,400,627,255,949,343,209,850,375,481,852,491,78,409,902,472,737,965,699,332,100,271,353,590,538,102,996,245,508,933,562,277,636,155,685,955,555,281,84,832,33,138,243,26,961,265,748,753,874,751,512,655,645,591,901,362,617,797,711,547,521,95,943,690,544,31,52,379,37,722,135,136,525,679,803,652,896,447,738,890,462,771,540,872,601,254,994,24,313,559,373,178,453,603,727,616,549,234]","arrowright","","true","0","14","150","1000","[""0060_N1000_K0150_NOCLIQUE"",""0071_N1000_K0150_CLIQUE""]"
"","","","","","audio-keyboard-response","76","259322","0.0-62.0-0.0-1.0","","null","audio_feedback/right/coin01.mp3","null","","","","","0","14","150","1000","[""0060_N1000_K0150_NOCLIQUE"",""0071_N1000_K0150_CLIQUE""]"
"","","","","","canvas-keyboard-response","77","262373","0.0-63.0-0.0-0.0","","1648","","arrowright","[804,622,838,3,711,600,102,125,355,41,59,985,537,660,562,471,610,275,972,696,564,159,231,703,899,313,971,333,869,662,868,877,116,119,897,182,449,496,489,715,0,85,728,623,134,742,512,849,72,809,40,237,177,813,871,758,417,326,164,916,423,788,478,286,464,251,672,578,744,486,91,184,805,413,130,783,375,393,385,555,77,307,884,104,412,723,975,565,875,428,98,947,616,26,996,898,784,579,694,553,265,602,418,158,693,405,945,789,655,659,500,876,45,836,263,529,161,780,738,290,234,401,49,64,492,533,635,988,587,257,646,460,753,746,261,196,686,285,198,181,101,376,766,821,872,621,310,174,312,928,39,437,770,590,54,618,29,718,937,751,374,320,100,404,408,146,959,648,596,567,143,354,260,157,628,632,379,737,197,532,185,411,559,598,585,941,283,92,704,594,889,199,851,814,919,47,24,300,105,120,925,791,811,536,825,965,83,970,419,917,774,336,759,716,544,48,141,74,173,317,588,735,350,950,611,149,46,166,279,207,217,15,406,278,351,969,951,281,195,527,796,687,165,248,964,494,30,150,870,709,37,82,859,778,463,516,980,765,607,223,431,570,462,958,399,526,761,992,991,52,984,121,754,702,924,721,846,80,713,973,882,642,707,725,820,242,90,209,365,17,485,538,421,244,58,576,132,907,995,724,638,256,459,156,798,741,689,382,680,749,73,561,794,416,245,127,936,637,466,681,790,407,733,205,227,915,511,768,604,896,822,1,216,558,954,490,999,620,551,273,549,341,692,518,239,644,641,540,903,739,609,557,691,929,289,57,663,785,909,224,330,552,944,583,291,861,591,679,451,235,614,75,188,629,345,389,605,773,398,730,457,475,8,139,392,403,383,429,432,322,20,948,250,364,639,456,137,252,193,669,926,617,569,335,855,705,135,264,446,316,246,247,946,394,803,560,949,676,381,952,219,378,866,422,321,262,23,6,332,812,284,664,360,172,752,650,657,386,4,362,734,448,62,269,503,340,253,69,42,658,103,717,270,575,210,109,53,806,525,222,879,894,25,615,97,502,542,327,983,595,302,33,986,469,640,760,346,268,21,793,337,190,356,454,232,280,440,200,305,299,554,833,388,830,43,853,997,131,955,483,128,370,939,974,142,352,221,76,271,837,436,303,155,699,911,163,708,170,267,453,338,920,782,831,865,9,473,989,266,213,296,334,910,93,288,839,661,67,674,230,771,11,191,854,117,187,904,402,487,547,938,86,548,236,864,306,66,887,292,665,470,906,747,563,586,581,626,550,852,850,228,795,293,797,61,624,801,808,568,505,612,519,647,779,823,201,133,27,840,832,391,601,892,745,883,651,175,545,688,249,311,901,677,441,439,468,862,145,491,68,206,535,202,19,895,420,914,732,817,885,229,923,816,858,802,287,397,318,714,480,282,95,14,847,144,108,204,32,87,932,845,241,70,434,912,934,891,729,645,757,775,481,764,523,357,670,79,927,455,515,44,993,240,977,541,31,726,255,668,474,597,148,599,129,162,956,842,960,856,154,940,818,501,258,507,444,572,678,546,506,712,342,295,452,427,479,978,328,863,377,254,905,136,819,666,298,979,167,582,71,359,514,513,799,114,528,736,517,51,930,212,957,126,967,34,593,445,358,35,123,461,627,482,233,339,743,179,94,685,573,571,829,908,169,178,880,55,435,827,180,329,5,878,921,211,107,633,400,963,424,933,183,772,110,961,324,893,208,888,309,343,953,373,443,521,530,203,160,675,722,151,720,189,124,368,315,84,698,186,584,781,395,968,274,111,13,566,450,828,325,902,690,886,982,539,22,835,931,344,619,426,844,634,7,881,369,608,815,115,631,987,630,695,171,682,543,277,810,900,841,276,800,826,331,636,60,238,701,2,756,653,488,994,12,508,147,192,28,763,218,140,380,684,493,534,348,349,706,363,762,433,153,106,913,63,88,415,323,438,96,981,81,943,10,410,787,755,786,962,308,113,643,592,498,873,176,731,477,425,314,138,656,767,430,272,225,301,671,603,976,484,465,860,458,748,215,683,509,649,990,834,606,387,18,874,50,625,220,112,214,152,259,56,371,776,414,294,522,36,38,867,168,710,472,89,467,998,520,580,319,667,510,118,65,857,918,442,740,390,226,654,447,409,589,719,347,769,99,531,556,922,384,396,495,353,890,935,727,613,574,792,577,367,297,750,966,843,700,78,697,366,673,942,807,243,848,524,122,304,497,499,372,504,361,824,652,777,476,16,194]","arrowright","","true","0","15","150","1000","[""0032_N1000_K0150_NOCLIQUE"",""0022_N1000_K0150_CLIQUE""]"
"","","","","","audio-keyboard-response","78","263362","0.0-63.0-0.0-1.0","","null","audio_feedback/right/coin01.mp3","null","","","","","0","15","150","1000","[""0032_N1000_K0150_NOCLIQUE"",""0022_N1000_K0150_CLIQUE""]"
"","","","","","canvas-keyboard-response","79","265933","0.0-64.0-0.0-0.0","","1195","","arrowright","[473,425,458,558,968,805,673,556,46,363,895,323,676,154,808,640,961,272,428,526,489,271,38,773,856,692,604,729,261,779,593,831,785,305,169,316,26,462,940,969,275,1,970,375,297,621,293,867,612,950,858,565,32,657,447,613,880,418,854,662,636,15,231,999,18,547,802,902,938,693,743,647,736,626,342,885,434,70,221,665,595,174,951,953,850,234,844,194,905,340,912,203,220,251,265,933,913,759,445,300,715,262,539,955,398,753,720,151,806,20,236,226,678,497,365,704,419,440,932,353,893,997,687,686,348,894,724,382,518,884,706,552,240,77,929,731,8,237,109,245,795,705,995,302,740,94,864,723,770,546,295,47,700,420,570,767,719,457,102,917,48,179,576,935,993,88,947,315,842,280,589,130,67,833,336,460,793,504,206,599,321,250,520,535,533,123,376,407,403,401,942,825,827,527,474,313,697,448,772,35,344,119,868,712,959,749,224,787,691,530,794,776,544,451,97,946,979,764,551,914,664,124,639,875,889,499,918,768,309,270,579,897,193,405,531,25,684,879,167,406,782,114,861,319,839,318,227,857,178,463,923,625,235,357,199,578,619,656,699,679,299,672,992,591,985,429,146,75,466,863,931,14,459,752,377,910,370,79,624,52,991,273,537,207,698,438,430,685,49,845,90,550,603,967,642,205,115,734,86,480,121,688,956,28,609,509,849,498,225,414,584,618,159,22,29,904,347,696,920,200,214,290,843,384,43,413,0,164,356,301,71,95,671,349,513,53,324,338,182,750,264,945,580,211,801,441,888,586,596,395,16,927,973,242,989,472,873,188,372,649,541,948,646,899,834,568,3,494,325,919,350,777,901,859,266,228,813,103,741,751,23,949,364,744,709,27,994,742,648,936,486,464,569,754,51,138,326,133,142,127,788,37,605,311,362,564,110,986,934,563,258,964,971,83,172,493,327,730,153,147,510,283,345,683,396,339,732,982,397,73,282,907,105,943,655,328,303,892,361,116,937,728,887,267,260,944,137,941,990,501,471,614,128,402,467,574,549,694,965,627,85,330,517,144,292,308,410,668,129,291,284,669,334,453,804,68,496,701,99,972,663,545,409,573,177,689,259,76,838,446,24,490,189,786,534,310,417,798,2,139,277,911,745,567,984,996,436,367,84,623,439,232,126,883,876,481,81,557,930,416,56,276,528,978,848,294,577,824,437,393,358,34,928,974,790,215,922,572,355,765,617,360,900,766,886,597,108,855,155,255,392,449,400,590,641,30,495,832,204,581,521,988,847,149,217,475,508,254,478,482,332,145,818,523,373,202,298,388,681,543,152,333,192,560,635,268,89,253,921,173,229,483,191,757,733,241,331,36,431,960,829,394,571,769,585,399,670,737,800,380,525,654,461,774,835,522,860,791,346,763,650,343,248,366,63,600,582,131,96,760,983,93,871,287,796,817,610,274,166,160,695,505,156,515,853,45,926,117,628,652,281,278,836,335,210,758,296,433,722,725,218,874,710,660,658,488,314,100,470,195,78,659,135,587,633,548,98,304,514,352,312,317,524,44,542,690,386,644,39,307,140,187,351,981,479,716,21,91,17,412,555,306,196,837,92,57,111,162,33,197,216,962,909,566,456,11,185,257,55,477,233,54,607,223,622,575,163,866,322,803,10,120,74,80,31,170,286,213,878,455,263,602,823,415,136,50,512,426,939,72,381,809,408,891,881,554,977,606,792,64,244,667,59,987,359,840,666,783,726,748,799,212,183,424,219,954,435,869,998,780,422,222,122,507,882,674,383,703,711,171,632,500,675,288,125,781,175,966,815,739,519,643,677,485,442,735,134,61,432,630,329,540,707,651,444,963,9,841,755,476,404,487,7,148,634,814,797,238,337,12,60,852,112,239,789,620,588,256,269,201,608,186,132,378,141,106,143,516,645,87,484,190,391,107,492,421,915,252,369,5,184,870,908,387,491,830,158,872,427,246,62,903,702,168,40,958,975,4,851,680,846,826,249,180,592,562,374,631,784,896,118,756,638,503,980,559,629,747,161,810,529,320,877,279,653,598,957,538,594,42,208,828,812,104,865,506,6,916,532,289,811,718,19,553,389,465,157,390,976,69,746,536,165,230,738,925,713,822,616,209,468,820,379,778,371,176,469,41,906,113,637,243,890,452,661,775,502,717,561,721,454,727,816,615,354,898,65,101,601,682,181,761,341,82,611,924,443,285,952,511,771,583,708,862,385,58,821,450,762,66,13,411,714,150,247,198,423,807,368,819]","arrowright","","true","0","16","133","1000","[""0065_N1000_K0133_NOCLIQUE"",""0089_N1000_K0133_CLIQUE""]"
"","","","","","audio-keyboard-response","80","266922","0.0-64.0-0.0-1.0","","null","audio_feedback/right/coin01.mp3","null","","","","","0","16","133","1000","[""0065_N1000_K0133_NOCLIQUE"",""0089_N1000_K0133_CLIQUE""]"
"","","","","","canvas-keyboard-response","81","271382","0.0-65.0-0.0-0.0","","3023","","arrowleft","[806,463,793,784,389,156,531,385,638,483,954,762,410,121,10,555,226,101,601,596,988,214,302,737,992,955,869,519,743,948,620,145,309,270,809,780,801,372,290,148,647,984,205,803,885,468,975,142,192,98,592,554,32,667,547,294,374,567,750,966,930,249,4,144,202,588,662,130,663,458,292,8,137,871,744,578,267,787,825,702,703,377,587,494,659,666,52,893,887,833,521,800,530,445,945,201,79,937,435,573,223,607,306,982,133,60,880,774,274,968,219,782,785,3,778,628,126,243,990,779,343,485,182,653,613,82,399,398,108,417,234,678,863,437,17,275,424,357,186,700,507,742,998,627,710,104,527,619,794,591,50,759,683,865,193,503,583,670,640,447,168,331,786,20,697,100,276,99,802,427,823,2,365,54,135,717,637,119,269,676,923,726,215,245,283,471,297,735,766,199,994,380,536,349,56,986,449,472,635,623,363,929,35,359,564,452,907,489,970,897,125,440,139,881,691,285,448,289,356,526,610,350,436,508,490,163,502,491,835,284,622,266,167,24,506,457,68,313,680,851,59,957,323,581,344,51,805,387,891,336,34,947,237,87,781,419,908,475,856,614,686,307,533,208,422,241,257,218,677,256,228,46,450,246,310,191,73,621,454,414,364,544,317,974,147,369,351,706,991,693,625,877,558,451,96,654,739,879,379,128,114,76,362,943,196,314,26,861,924,900,838,231,909,299,792,910,648,403,271,467,90,209,232,217,731,661,381,279,772,295,769,305,895,16,395,77,709,268,166,847,942,915,239,298,61,542,878,383,888,532,470,282,443,136,154,711,159,262,407,15,120,860,373,460,488,115,92,933,484,397,497,80,941,210,603,341,456,132,714,402,534,116,172,979,993,0,143,280,848,465,122,500,788,117,238,824,312,985,162,590,300,905,741,689,455,514,174,964,771,180,370,980,220,684,944,244,339,62,206,425,650,255,783,258,883,94,931,45,25,671,734,157,368,556,332,12,950,439,919,546,155,832,325,776,938,636,571,482,513,88,109,36,509,577,827,593,296,738,946,745,595,870,971,303,920,761,642,604,716,831,64,926,978,660,1,698,464,517,973,789,586,722,333,674,189,690,733,277,198,821,600,960,70,396,615,916,252,393,855,129,200,816,740,675,850,707,746,705,876,153,501,695,229,33,810,152,617,190,408,361,570,211,466,730,66,386,981,5,618,324,753,23,977,248,345,775,173,589,815,134,250,57,561,225,708,197,53,480,138,572,518,21,914,553,326,560,184,646,862,102,728,265,657,576,293,431,308,548,902,263,367,444,479,606,442,842,55,247,854,352,170,626,476,639,552,347,516,808,30,71,95,394,433,901,40,828,185,151,866,428,390,630,273,886,342,179,72,105,204,360,212,565,952,652,932,756,474,989,392,169,829,496,492,42,340,996,183,261,799,438,754,43,913,687,563,149,987,165,328,953,195,817,927,995,272,899,688,961,321,38,322,224,656,791,884,763,925,164,725,958,749,194,113,602,230,796,773,608,715,727,723,236,469,103,826,523,918,867,124,922,515,934,890,873,493,921,814,520,537,222,187,473,999,959,936,111,404,110,409,853,510,972,446,701,84,146,415,559,19,37,669,760,31,651,75,512,338,329,562,836,956,834,798,612,903,93,649,557,874,85,767,575,281,176,251,641,401,511,535,358,597,160,685,188,804,868,935,481,49,962,939,898,872,426,611,81,541,337,388,777,882,665,645,582,405,616,486,254,911,316,712,928,430,123,841,605,736,178,574,221,664,729,820,724,207,795,857,917,375,48,849,549,543,421,528,391,498,291,748,719,423,997,585,181,704,811,233,822,158,790,28,29,525,9,894,718,969,286,682,845,631,371,599,540,655,412,27,432,175,768,346,551,259,240,216,940,63,751,112,632,892,7,830,107,65,951,320,807,566,478,304,411,413,118,875,643,584,852,11,594,504,477,813,539,318,376,679,732,311,720,161,334,382,859,797,505,235,14,499,353,963,319,39,580,568,434,459,983,896,694,844,378,529,89,681,692,764,406,131,840,524,416,770,629,384,752,453,420,260,400,633,177,858,203,127,227,264,86,106,522,673,91,765,287,461,140,213,713,253,579,967,889,58,904,83,47,658,843,41,634,545,355,78,315,839,18,441,366,721,609,288,672,818,348,462,755,668,22,278,912,335,487,141,6,354,624,758,812,644,747,846,550,67,598,242,819,569,864,429,74,13,696,330,495,327,949,418,906,69,757,301,97,44,837,699,538,150,976,965,171]","arrowleft","","true","0","17","133","1000","[""0096_N1000_K0133_CLIQUE"",""0044_N1000_K0133_NOCLIQUE""]"
"","","","","","audio-keyboard-response","82","272382","0.0-65.0-0.0-1.0","","null","audio_feedback/right/coin01.mp3","null","","","","","0","17","133","1000","[""0096_N1000_K0133_CLIQUE"",""0044_N1000_K0133_NOCLIQUE""]"
"","","","","","canvas-keyboard-response","83","276402","0.0-66.0-0.0-0.0","","2670","","arrowleft","[999,351,658,159,272,160,388,411,6,601,226,58,217,915,355,437,337,145,717,639,903,826,198,28,128,92,988,216,996,876,849,41,683,274,989,40,704,840,129,304,885,736,364,605,568,551,372,597,521,240,235,25,194,761,65,791,979,538,419,789,825,59,44,60,724,813,300,869,342,150,918,665,74,600,51,585,872,614,415,673,49,85,714,927,481,266,615,765,369,249,17,834,277,540,886,748,893,426,61,516,184,829,720,314,408,860,239,482,500,705,424,906,171,925,439,222,453,579,517,771,696,674,466,807,211,758,555,622,7,182,133,185,436,143,183,867,661,896,691,654,855,969,809,726,362,391,757,783,286,271,212,416,139,56,946,47,448,715,709,218,629,995,241,743,264,583,711,819,204,679,275,384,470,897,452,76,262,295,640,745,114,666,753,112,190,938,902,417,219,657,847,99,126,10,50,504,307,519,778,953,107,641,631,370,966,591,952,157,461,937,923,856,153,910,890,744,36,378,475,483,816,380,398,732,593,951,287,881,276,353,290,313,669,971,506,250,459,392,731,474,880,27,39,821,168,311,141,105,728,86,312,613,325,356,699,137,386,338,261,702,941,510,413,446,795,764,520,265,467,163,24,66,124,263,760,919,678,106,777,327,382,445,603,698,33,477,749,553,173,109,315,63,220,246,125,203,792,191,189,407,689,420,627,83,207,700,93,581,682,16,438,805,836,961,848,5,410,463,67,468,774,804,174,740,981,672,877,267,560,843,844,987,835,26,132,561,588,755,324,862,252,741,248,707,64,701,259,352,837,469,649,609,511,566,371,465,214,341,546,899,772,980,769,806,231,694,4,934,598,800,965,134,202,548,643,215,473,54,57,278,472,898,368,582,283,399,650,572,451,476,617,497,147,852,920,695,982,768,346,586,703,924,401,926,302,684,487,962,499,788,52,914,954,120,589,3,916,387,53,227,594,543,567,780,523,810,31,929,20,450,321,167,933,539,578,493,18,895,964,94,773,308,454,492,425,254,671,688,358,269,770,166,237,541,935,165,385,604,730,690,680,155,781,9,68,993,928,322,350,814,288,530,260,754,569,221,393,449,595,77,559,793,692,471,832,375,23,794,373,462,532,238,172,234,620,491,549,751,268,46,533,958,633,824,169,298,576,179,158,870,644,421,833,905,992,131,330,508,29,135,144,19,839,334,901,418,606,948,319,545,496,188,752,96,88,293,565,564,922,331,945,243,799,887,187,822,257,224,396,434,116,785,708,734,706,943,782,490,318,944,917,12,70,457,176,256,361,178,859,990,390,345,35,853,647,621,0,628,812,270,871,480,552,718,610,164,242,909,255,80,376,32,912,796,670,479,722,575,616,89,294,892,103,297,210,464,528,458,502,136,505,733,281,960,529,122,759,456,441,854,863,209,656,148,282,21,175,8,142,556,949,646,110,602,344,440,959,73,427,336,818,884,394,101,192,115,525,574,573,932,712,721,846,998,630,681,942,403,15,71,229,326,400,292,478,447,91,811,431,374,87,842,309,489,442,850,435,776,305,495,687,766,340,323,444,405,763,395,931,571,970,306,619,503,186,534,181,82,710,199,253,381,13,775,513,117,233,857,397,97,558,285,81,537,55,37,779,247,177,864,48,377,118,524,156,127,365,347,900,515,838,801,170,213,930,756,518,332,767,409,225,957,402,936,383,664,762,536,544,858,632,590,592,735,955,2,911,433,978,149,921,360,882,716,335,719,750,429,737,206,485,570,968,868,280,599,299,830,542,828,940,983,913,577,98,501,279,994,228,638,878,197,866,154,404,223,635,883,494,861,607,79,514,72,875,797,889,486,625,653,244,618,891,977,841,798,686,34,526,200,739,412,907,685,296,784,339,865,873,562,379,831,815,484,676,645,659,251,130,455,42,95,62,713,161,123,205,723,554,612,557,104,357,432,967,626,111,151,507,343,725,547,675,667,655,974,291,522,668,636,820,43,366,663,84,879,102,317,997,236,22,354,817,180,738,584,975,14,359,195,947,208,69,201,648,985,634,152,310,963,301,531,414,956,976,950,790,90,642,611,904,580,289,406,78,273,851,460,623,596,328,367,986,389,108,498,349,1,729,329,422,100,527,888,637,11,651,30,697,232,803,587,808,624,138,162,119,563,727,693,802,38,196,363,316,320,303,348,939,677,245,845,140,973,984,608,113,512,333,121,430,550,45,662,747,787,827,488,742,746,991,443,258,535,660,786,193,230,428,652,146,509,284,823,908,423,75,874,972,894]","arrowleft","","true","0","18","117","1000","[""0044_N1000_K0117_CLIQUE"",""0063_N1000_K0117_NOCLIQUE""]"
"","","","","","audio-keyboard-response","84","277402","0.0-66.0-0.0-1.0","","null","audio_feedback/right/coin01.mp3","null","","","","","0","18","117","1000","[""0044_N1000_K0117_CLIQUE"",""0063_N1000_K0117_NOCLIQUE""]"
"","","","","","canvas-keyboard-response","85","306570","0.0-67.0-0.0-0.0","","27775","","arrowright","[316,926,272,920,769,456,570,791,266,425,415,152,531,452,116,170,836,369,136,759,182,397,0,124,70,749,355,713,781,454,300,550,541,700,944,241,463,628,708,198,565,816,188,852,350,352,904,206,15,349,86,917,993,483,545,983,762,692,622,972,667,375,342,343,324,6,128,678,226,379,209,491,939,40,185,932,218,747,74,739,107,584,486,320,962,955,782,522,551,77,175,318,629,527,690,778,367,111,164,338,72,979,321,278,267,973,895,743,71,756,990,202,997,238,249,533,428,96,905,884,78,808,407,125,460,654,813,441,419,872,270,13,537,524,129,161,748,393,799,547,217,945,81,638,258,540,776,85,228,765,764,139,658,516,457,849,704,800,548,770,890,337,497,68,359,199,826,220,878,265,290,14,964,755,546,943,73,585,327,420,8,435,303,597,295,474,48,685,341,750,933,860,579,534,177,726,508,279,952,733,827,818,147,144,462,239,351,980,470,562,412,178,974,504,564,946,322,410,712,465,889,387,819,596,745,877,306,631,305,965,340,664,162,611,296,212,639,5,744,915,502,204,957,705,431,110,422,940,757,881,614,923,888,665,427,790,219,896,645,899,61,443,429,894,195,590,981,996,856,331,821,735,532,571,389,954,717,912,931,181,103,37,600,835,166,928,69,648,670,530,766,104,348,80,529,539,487,822,557,518,785,751,824,149,512,862,742,91,64,525,683,60,475,274,783,994,511,45,719,825,288,224,257,810,903,900,301,360,948,392,344,513,703,394,809,459,863,282,893,630,271,606,357,847,35,434,380,328,802,208,845,466,256,151,592,837,772,961,519,641,535,588,382,876,356,663,173,36,368,498,231,720,330,754,734,47,312,153,918,908,566,910,589,935,784,761,101,871,806,834,655,49,335,710,618,523,138,602,169,960,416,727,725,875,24,23,569,624,887,682,411,633,501,307,401,601,414,148,736,746,245,500,672,146,953,607,741,699,987,829,855,183,833,358,332,958,418,192,646,599,651,336,520,262,647,598,437,620,186,388,225,721,695,573,403,323,978,575,937,644,123,176,2,326,859,313,3,180,941,869,793,372,234,273,775,34,798,536,789,377,381,505,865,925,302,227,160,378,857,521,526,396,477,694,455,689,797,788,119,503,649,666,625,112,438,56,17,44,681,850,999,469,51,168,959,549,38,989,854,675,604,121,554,971,495,132,285,383,142,839,398,216,718,840,484,62,275,938,567,492,325,179,363,211,174,684,632,730,131,786,687,402,544,395,924,621,780,595,89,172,740,612,711,53,812,803,347,451,386,346,120,43,135,126,329,66,794,450,902,773,574,364,353,480,906,858,619,187,54,966,528,137,811,157,643,203,365,190,4,370,405,65,580,763,572,444,250,92,637,615,9,41,892,201,988,807,558,732,221,421,553,901,976,87,311,507,449,366,413,156,42,476,269,909,83,159,88,189,623,30,58,67,118,130,244,914,795,591,832,913,930,84,11,561,986,404,400,117,213,866,259,753,758,676,237,867,673,919,652,985,891,75,934,701,879,927,969,640,613,659,63,310,472,560,371,246,880,642,674,669,771,635,830,205,680,851,115,445,184,616,171,605,610,254,538,494,1,436,304,345,593,235,222,98,967,59,105,568,950,299,354,883,232,214,898,956,627,479,440,196,777,841,947,284,897,240,294,506,870,391,155,264,464,215,82,292,253,844,243,843,317,308,864,594,737,158,28,50,229,247,848,885,977,194,97,255,559,94,79,774,578,154,982,165,473,963,768,114,728,293,995,167,19,662,873,724,100,22,384,297,417,510,141,233,576,657,143,193,702,150,828,796,99,471,7,650,936,738,113,656,210,102,248,467,426,399,442,563,109,922,10,949,409,76,998,31,439,16,583,458,26,145,261,376,134,406,626,787,430,555,490,874,25,140,942,697,106,423,90,916,432,542,686,236,779,33,731,707,223,57,514,268,911,814,760,133,277,581,493,861,838,468,95,552,617,543,661,668,801,609,716,929,679,374,283,298,127,907,499,482,582,280,815,485,603,820,433,20,805,886,18,653,27,385,319,698,12,577,853,447,868,207,709,608,688,729,478,453,260,197,55,333,951,984,448,32,817,242,424,163,314,291,286,122,489,390,660,586,517,882,315,289,634,46,362,200,846,29,108,991,21,831,515,921,281,992,636,488,191,706,691,587,252,496,714,481,677,373,287,39,263,715,276,309,722,767,696,671,975,334,509,970,461,693,93,339,230,556,52,361,792,968,251,804,446,823,723,408,752,842]","arrowleft","","false","0","19","117","1000","[""0051_N1000_K0117_CLIQUE"",""0080_N1000_K0117_NOCLIQUE""]"
"","","","","","audio-keyboard-response","86","307993","0.0-67.0-0.0-1.0","","null","audio_feedback/wrong/error01.mp3","null","","","","","0","19","117","1000","[""0051_N1000_K0117_CLIQUE"",""0080_N1000_K0117_NOCLIQUE""]"
