"success","timeout","failed_images","failed_audio","failed_video","trial_type","trial_index","time_elapsed","internal_node_id","view_history","rt","stimulus","response","nodes_order","correct_response","graphs_couple","accuracy","block_index","presentation_index","clique_size","graph_size","graphs_names"
"true","false","[]","[]","[]","preload","0","1231","0.0-0.0","","","","","","","","","","","","",""
"","","","","","pavlovia","1","1836","0.0-1.0","","","","","","","","","","","","",""
"","","","","","instructions","2","10169","0.0-2.0","[{""page_index"":0,""viewing_time"":4216},{""page_index"":1,""viewing_time"":4107}]","8323","","","","","","","","","","",""
"true","false","[]","[]","[]","preload","3","11328","0.0-3.0","","","","","","","","","","","","",""
"","","","","","instructions","4","120402","0.0-4.0","[{""page_index"":0,""viewing_time"":2647},{""page_index"":1,""viewing_time"":1017},{""page_index"":2,""viewing_time"":789},{""page_index"":3,""viewing_time"":670},{""page_index"":4,""viewing_time"":411},{""page_index"":3,""viewing_time"":1468},{""page_index"":4,""viewing_time"":550},{""page_index"":3,""viewing_time"":579},{""page_index"":4,""viewing_time"":290},{""page_index"":3,""viewing_time"":8124},{""page_index"":4,""viewing_time"":446},{""page_index"":3,""viewing_time"":500},{""page_index"":4,""viewing_time"":391},{""page_index"":3,""viewing_time"":1024},{""page_index"":4,""viewing_time"":375},{""page_index"":5,""viewing_time"":911},{""page_index"":4,""viewing_time"":922},{""page_index"":3,""viewing_time"":3049},{""page_index"":2,""viewing_time"":428},{""page_index"":3,""viewing_time"":6710},{""page_index"":4,""viewing_time"":948},{""page_index"":3,""viewing_time"":382},{""page_index"":4,""viewing_time"":500},{""page_index"":3,""viewing_time"":1250},{""page_index"":4,""viewing_time"":626},{""page_index"":3,""viewing_time"":464},{""page_index"":4,""viewing_time"":490},{""page_index"":3,""viewing_time"":540},{""page_index"":4,""viewing_time"":360},{""page_index"":3,""viewing_time"":391},{""page_index"":4,""viewing_time"":360},{""page_index"":3,""viewing_time"":4759},{""page_index"":4,""viewing_time"":490},{""page_index"":3,""viewing_time"":3633},{""page_index"":4,""viewing_time"":407},{""page_index"":3,""viewing_time"":2691},{""page_index"":4,""viewing_time"":711},{""page_index"":3,""viewing_time"":24300},{""page_index"":4,""viewing_time"":729},{""page_index"":3,""viewing_time"":750},{""page_index"":4,""viewing_time"":260},{""page_index"":3,""viewing_time"":8711},{""page_index"":4,""viewing_time"":699},{""page_index"":3,""viewing_time"":2080},{""page_index"":4,""viewing_time"":360},{""page_index"":5,""viewing_time"":500},{""page_index"":6,""viewing_time"":420},{""page_index"":7,""viewing_time"":389},{""page_index"":8,""viewing_time"":381},{""page_index"":9,""viewing_time"":530},{""page_index"":10,""viewing_time"":349},{""page_index"":11,""viewing_time"":431},{""page_index"":12,""viewing_time"":250},{""page_index"":13,""viewing_time"":190},{""page_index"":14,""viewing_time"":170},{""page_index"":15,""viewing_time"":191},{""page_index"":16,""viewing_time"":199},{""page_index"":17,""viewing_time"":240},{""page_index"":18,""viewing_time"":201},{""page_index"":19,""viewing_time"":380},{""page_index"":20,""viewing_time"":301},{""page_index"":21,""viewing_time"":210},{""page_index"":22,""viewing_time"":209},{""page_index"":23,""viewing_time"":190},{""page_index"":24,""viewing_time"":260},{""page_index"":25,""viewing_time"":200},{""page_index"":26,""viewing_time"":231},{""page_index"":27,""viewing_time"":229},{""page_index"":28,""viewing_time"":420},{""page_index"":29,""viewing_time"":279},{""page_index"":30,""viewing_time"":221},{""page_index"":31,""viewing_time"":310},{""page_index"":32,""viewing_time"":840},{""page_index"":33,""viewing_time"":433},{""page_index"":34,""viewing_time"":238},{""page_index"":35,""viewing_time"":269},{""page_index"":36,""viewing_time"":1112},{""page_index"":37,""viewing_time"":398},{""page_index"":38,""viewing_time"":763},{""page_index"":39,""viewing_time"":2748},{""page_index"":40,""viewing_time"":470},{""page_index"":41,""viewing_time"":480},{""page_index"":42,""viewing_time"":570},{""page_index"":43,""viewing_time"":580},{""page_index"":44,""viewing_time"":601},{""page_index"":45,""viewing_time"":1059},{""page_index"":46,""viewing_time"":520},{""page_index"":47,""viewing_time"":320},{""page_index"":48,""viewing_time"":440},{""page_index"":49,""viewing_time"":442},{""page_index"":50,""viewing_time"":399},{""page_index"":51,""viewing_time"":320}]","109074","","","","","","","","","","",""
"","","","","","instructions","5","130111","0.0-5.0","[{""page_index"":0,""viewing_time"":9705}]","9706","","","","","","","","","","",""
"true","false","[]","[]","[]","preload","6","131503","0.0-6.0","","","","","","","","","","","","",""
"","","","","","image-keyboard-response","7","135373","0.0-7.0","","3845","tutorial/task_familiarization_images/part 1/01_N160_K90_cliqueRight_question1.PNG"," ","","","","","","","","",""
"","","","","","image-keyboard-response","8","137230","0.0-8.0","","1854","tutorial/task_familiarization_images/part 1/02_N160_K90_cliqueRight_question2.PNG"," ","","","","","","","","",""
"","","","","","image-keyboard-response","9","138071","0.0-9.0","","839","tutorial/task_familiarization_images/part 1/03_N160_K90_cliqueRight_question3.PNG","arrowright","","","","","","","","",""
"","","","","","image-keyboard-response","10","138851","0.0-10.0","","773","tutorial/task_familiarization_images/part 1/04_N160_K90_cliqueRight_solution.PNG"," ","","","","","","","","",""
"","","","","","image-keyboard-response","11","139371","0.0-11.0","","517","tutorial/task_familiarization_images/part 1/05_N160_K65_cliqueRight_question1.PNG"," ","","","","","","","","",""
"","","","","","image-keyboard-response","12","141709","0.0-12.0","","2336","tutorial/task_familiarization_images/part 1/06_N160_K65_cliqueRight_question2.PNG"," ","","","","","","","","",""
"","","","","","image-keyboard-response","13","142061","0.0-13.0","","350","tutorial/task_familiarization_images/part 1/07_N160_K65_cliqueRight_question3.PNG","arrowright","","","","","","","","",""
"","","","","","image-keyboard-response","14","142470","0.0-14.0","","408","tutorial/task_familiarization_images/part 1/08_N160_K65_cliqueRight_solution.PNG"," ","","","","","","","","",""
"","","","","","image-keyboard-response","15","142842","0.0-15.0","","369","tutorial/task_familiarization_images/part 1/09_N160_K50_cliqueLeft_question1.PNG"," ","","","","","","","","",""
"","","","","","image-keyboard-response","16","143881","0.0-16.0","","1036","tutorial/task_familiarization_images/part 1/10_N160_K50_cliqueLeft_question2.PNG"," ","","","","","","","","",""
"","","","","","image-keyboard-response","17","144070","0.0-17.0","","187","tutorial/task_familiarization_images/part 1/11_N160_K50_cliqueLeft_question3.PNG","arrowleft","","","","","","","","",""
"","","","","","image-keyboard-response","18","144650","0.0-18.0","","578","tutorial/task_familiarization_images/part 1/12_N160_K50_cliqueLeft_solution.PNG"," ","","","","","","","","",""
"","","","","","image-keyboard-response","19","147591","0.0-19.0","","2938","tutorial/task_familiarization_images/part 1/13_N160_K80_cliqueLeft_question1.PNG"," ","","","","","","","","",""
"","","","","","image-keyboard-response","20","148621","0.0-20.0","","1027","tutorial/task_familiarization_images/part 1/14_N160_K80_cliqueLeft_question2.PNG"," ","","","","","","","","",""
"","","","","","image-keyboard-response","21","149350","0.0-21.0","","727","tutorial/task_familiarization_images/part 1/15_N160_K80_cliqueLeft_question3.PNG","arrowleft","","","","","","","","",""
"","","","","","image-keyboard-response","22","150202","0.0-22.0","","849","tutorial/task_familiarization_images/part 1/16_N160_K80_cliqueLeft_solution.PNG"," ","","","","","","","","",""
"","","","","","image-keyboard-response","23","151870","0.0-23.0","","1665","tutorial/task_familiarization_images/part 1/17_N160_K40_cliqueRight_question1.PNG"," ","","","","","","","","",""
"","","","","","image-keyboard-response","24","152441","0.0-24.0","","568","tutorial/task_familiarization_images/part 1/18_N160_K40_cliqueRight_question2.PNG"," ","","","","","","","","",""
"","","","","","image-keyboard-response","25","153450","0.0-25.0","","1006","tutorial/task_familiarization_images/part 1/19_N160_K40_cliqueRight_question3.PNG","arrowright","","","","","","","","",""
"","","","","","image-keyboard-response","26","154560","0.0-26.0","","1108","tutorial/task_familiarization_images/part 1/20_N160_K40_cliqueRight_solution.PNG"," ","","","","","","","","",""
"","","","","","image-keyboard-response","27","156560","0.0-27.0","","1997","tutorial/task_familiarization_images/part 1/21_N160_K70_cliqueLeft_question1.PNG"," ","","","","","","","","",""
"","","","","","image-keyboard-response","28","156859","0.0-28.0","","298","tutorial/task_familiarization_images/part 1/22_N160_K70_cliqueLeft_question2.PNG"," ","","","","","","","","",""
"","","","","","image-keyboard-response","29","157739","0.0-29.0","","879","tutorial/task_familiarization_images/part 1/23_N160_K70_cliqueLeft_question3.PNG","arrowleft","","","","","","","","",""
"","","","","","image-keyboard-response","30","158212","0.0-30.0","","467","tutorial/task_familiarization_images/part 1/24_N160_K70_cliqueLeft_solution.PNG"," ","","","","","","","","",""
"true","false","[]","[]","[]","preload","31","159021","0.0-31.0","","","","","","","","","","","","",""
"","","","","","image-keyboard-response","32","164972","0.0-32.0","","5949","tutorial/task_familiarization_images/part 2/01_160_80_cliqueLeft_withFeedback_1.PNG"," ","","","","","","","","",""
"","","","","","image-keyboard-response","33","165302","0.0-33.0","","327","tutorial/task_familiarization_images/part 2/02_160_80_cliqueLeft_withFeedback_1.PNG"," ","","","","","","","","",""
"","","","","","image-keyboard-response","34","165883","0.0-34.0","","578","tutorial/task_familiarization_images/part 2/03_160_80_cliqueLeft_withFeedback_3.PNG","arrowleft","","","","","","","","",""
"","","","","","image-keyboard-response","35","166651","0.0-35.0","","765","tutorial/task_familiarization_images/part 2/04_160_80_cliqueLeft_withFeedback_correct.PNG"," ","","","","","","","","",""
"","","","","","image-keyboard-response","36","166982","0.0-36.0","","329","tutorial/task_familiarization_images/part 2/05_160_55_cliqueRight_withFeedback_1.PNG"," ","","","","","","","","",""
"","","","","","image-keyboard-response","37","168041","0.0-37.0","","1058","tutorial/task_familiarization_images/part 2/06_160_55_cliqueRight_withFeedback_2.PNG"," ","","","","","","","","",""
"","","","","","image-keyboard-response","38","168501","0.0-38.0","","459","tutorial/task_familiarization_images/part 2/07_160_55_cliqueRight_withFeedback_3.PNG","arrowright","","","","","","","","",""
"","","","","","image-keyboard-response","39","168942","0.0-39.0","","438","tutorial/task_familiarization_images/part 2/08_160_55_cliqueRight_withFeedback_correct.PNG"," ","","","","","","","","",""
"","","","","","image-keyboard-response","40","169241","0.0-40.0","","297","tutorial/task_familiarization_images/part 2/09_160_70_cliqueLeft_withFeedback_1.PNG"," ","","","","","","","","",""
"","","","","","image-keyboard-response","41","169692","0.0-41.0","","449","tutorial/task_familiarization_images/part 2/10_160_70_cliqueLeft_withFeedback_2.PNG"," ","","","","","","","","",""
"","","","","","image-keyboard-response","42","170791","0.0-42.0","","1097","tutorial/task_familiarization_images/part 2/11_160_70_cliqueLeft_withFeedback_3.PNG","arrowleft","","","","","","","","",""
"","","","","","image-keyboard-response","43","171202","0.0-43.0","","408","tutorial/task_familiarization_images/part 2/12_160_70_cliqueLeft_withFeedback_correct.PNG"," ","","","","","","","","",""
"","","","","","survey-html-form","44","179626","0.0-44.0","","8412","","{""gender"":""male"",""age"":""25""}","","","","","","","","",""
"","","","","","instructions","45","190902","0.0-45.0","[{""page_index"":0,""viewing_time"":11275}]","11275","","","","","","","","","","",""
"true",","","","","fullscreen","46","194511","0.0-47.0","","","","","","","","","","","","",""
"","","","","","canvas-keyboard-response","47","204443","0.0-48.0-0.0-0.0","","7162","","arrowright","[197,604,775,278,507,88,846,341,453,699,632,658,705,452,85,373,940,885,575,986,761,113,532,143,647,581,272,180,740,670,831,876,400,780,821,34,722,448,182,139,823,637,702,460,927,800,567,364,163,112,336,401,426,639,438,570,640,972,324,795,539,267,189,982,218,51,606,361,873,896,980,779,824,24,789,944,930,480,729,890,607,537,871,882,868,306,906,984,711,6,646,765,164,935,760,31,99,11,254,829,27,527,382,810,708,334,593,802,655,543,251,215,624,202,63,281,214,121,741,385,435,828,125,534,686,883,242,207,561,380,236,675,997,839,64,41,441,948,734,562,26,880,908,703,583,790,294,551,619,72,808,612,485,757,59,865,663,115,958,346,753,886,572,312,14,109,474,228,440,904,700,457,665,939,7,206,653,120,521,915,429,805,390,285,642,799,964,388,794,489,374,745,689,832,844,178,946,533,58,959,142,525,679,16,45,411,718,148,841,515,399,465,853,774,825,198,933,758,732,486,423,340,224,902,284,174,683,990,770,408,643,195,985,870,87,227,2,447,350,856,48,179,991,15,730,90,316,580,250,929,381,221,690,955,81,357,231,118,439,706,286,355,748,827,494,764,973,483,803,183,17,733,918,459,966,234,18,495,56,693,84,375,502,812,983,522,941,742,500,621,622,553,490,280,282,247,150,75,677,669,370,110,501,772,804,446,450,573,107,778,155,403,181,510,555,962,996,301,809,615,618,917,516,170,92,746,326,898,36,835,21,13,321,255,136,710,707,793,123,135,979,101,38,536,586,209,777,506,678,587,19,999,462,763,487,901,158,484,304,161,969,362,333,649,103,307,67,327,743,65,826,269,993,845,496,931,66,528,919,358,23,924,246,287,559,942,213,635,843,39,74,396,377,335,468,159,266,923,560,295,102,975,498,42,35,488,911,963,784,166,602,245,220,131,186,172,271,165,676,398,545,816,171,73,268,513,872,773,739,141,415,436,185,40,4,293,273,413,105,25,524,695,106,869,190,867,314,503,704,475,629,786,648,127,582,771,952,709,684,672,956,625,302,546,673,52,277,311,661,893,259,416,8,349,386,49,814,332,801,724,925,932,427,455,322,80,623,945,914,175,726,857,124,262,111,239,328,369,353,156,811,576,210,631,712,389,644,274,392,338,968,414,599,466,289,556,372,842,470,565,813,265,204,68,424,30,493,727,298,797,194,216,877,601,960,292,685,578,508,926,296,153,566,738,837,921,367,836,449,78,585,237,961,337,535,93,290,584,651,491,721,471,557,633,936,859,549,200,928,264,568,134,351,97,5,146,916,696,199,176,531,420,91,598,167,196,547,352,616,291,530,874,713,552,1,69,347,806,260,28,850,792,329,478,608,394,662,594,9,472,258,151,192,359,912,467,412,132,749,229,98,852,339,965,947,529,879,860,558,571,222,33,550,249,201,463,714,445,406,244,410,310,57,481,509,384,628,613,754,817,664,20,371,791,211,830,100,899,970,517,591,514,976,697,863,419,783,569,656,903,169,815,473,130,29,279,437,343,238,614,114,542,288,913,769,520,225,884,160,638,233,888,297,47,981,838,692,365,720,433,395,10,454,137,368,323,443,356,992,579,609,315,305,147,313,387,668,219,61,95,458,248,776,636,232,477,641,864,977,418,431,526,751,620,766,205,674,756,943,354,666,157,819,512,76,208,971,117,405,308,451,736,108,660,878,184,482,691,657,261,715,680,548,379,173,243,422,518,168,717,953,299,456,881,203,104,659,497,951,325,682,55,767,630,469,934,822,840,499,589,833,71,376,252,404,752,854,152,519,235,849,504,785,275,479,402,858,755,397,627,318,938,391,270,191,694,348,905,144,596,910,652,855,523,505,79,360,574,861,564,444,230,875,149,43,605,687,610,476,256,212,994,592,317,54,60,782,796,119,554,77,725,257,70,393,344,407,138,283,654,617,378,787,634,818,540,89,737,590,86,83,116,309,421,807,671,409,998,987,44,0,862,762,820,544,240,967,223,50,892,667,611,949,82,957,363,995,32,330,847,688,22,140,263,3,974,895,731,887,577,744,342,217,701,511,920,428,848,747,851,241,46,300,595,922,937,62,366,728,954,723,588,319,897,226,735,889,188,37,781,541,681,129,425,698,978,432,253,417,492,716,900,650,750,434,600,276,126,122,383,645,866,798,145,834,53,187,461,442,788,193,94,133,907,603,894,12,320,464,128,430,989,154,345,538,331,768,597,303,162,719,891,96,909,177,988,626,759,950,563]","arrowright","","true","0","0","300","1000","[""0013_N1000_K0300_NOCLIQUE"",""0036_N1000_K0300_CLIQUE""]"
"","","","","","audio-keyboard-response","48","206088","0.0-48.0-0.0-1.0","","null","audio_feedback/right/coin01.mp3","null","","","","","0","0","300","1000","[""0013_N1000_K0300_NOCLIQUE"",""0036_N1000_K0300_CLIQUE""]"
"","","","","","canvas-keyboard-response","49","211711","0.0-49.0-0.0-0.0","","2754","","arrowleft","[415,663,320,453,795,25,5,715,435,517,270,632,236,475,130,247,845,287,350,361,459,104,30,285,759,910,961,850,694,975,874,578,126,729,337,216,373,308,691,955,395,678,894,662,331,742,419,726,275,849,654,341,581,175,431,671,348,197,553,300,976,313,60,75,72,165,589,205,201,454,24,207,434,84,418,6,265,7,967,70,302,647,562,762,770,898,501,533,577,405,34,979,423,933,925,57,541,272,384,670,476,623,853,846,812,383,690,225,233,101,911,364,712,738,832,209,145,987,65,532,872,159,903,326,504,831,306,51,543,129,324,237,92,722,699,887,962,587,944,213,563,91,462,879,452,349,512,89,677,36,328,499,77,904,572,871,869,731,774,334,408,498,282,232,460,297,414,294,292,700,119,594,803,268,815,518,310,67,124,377,441,447,13,692,855,923,323,343,863,763,153,620,122,314,761,823,560,439,821,612,178,595,479,386,931,1,993,80,905,725,930,502,596,645,537,651,675,315,146,921,886,984,796,184,621,83,992,196,881,521,401,96,261,32,907,393,641,81,368,259,85,35,321,957,567,707,608,493,882,550,860,724,47,728,657,219,739,643,97,604,128,356,262,488,814,942,273,927,866,507,55,317,174,168,456,278,648,440,274,367,614,149,618,339,800,852,354,123,466,590,138,603,702,791,163,727,667,901,744,575,455,235,843,180,357,407,586,69,644,971,399,372,664,463,362,505,658,776,547,151,450,592,576,481,768,187,706,296,288,634,17,390,139,142,598,668,606,61,23,523,730,801,215,940,826,99,779,669,342,279,600,607,500,939,376,583,828,734,398,824,206,588,239,135,929,63,18,579,394,638,868,764,166,95,396,829,542,928,917,40,906,793,788,140,775,847,330,109,256,765,983,985,202,511,988,28,615,848,125,44,430,947,260,857,230,352,465,834,246,370,495,37,956,548,211,998,602,535,946,750,416,561,426,782,858,333,132,121,557,176,266,227,709,457,54,59,413,681,245,736,825,195,284,410,797,42,164,484,301,482,39,438,43,251,970,895,968,31,2,74,106,244,204,755,854,687,851,173,382,283,52,954,48,167,817,389,88,108,379,347,626,160,784,969,909,516,105,766,242,210,556,222,332,890,972,295,656,363,181,938,152,673,76,487,157,573,551,682,424,298,234,861,429,26,639,564,892,464,312,799,900,155,994,258,12,358,374,428,840,458,110,467,469,8,446,267,250,864,68,420,733,188,371,221,751,745,156,558,676,683,958,461,131,14,555,305,16,899,263,311,786,3,719,50,842,442,705,451,345,617,525,344,19,524,827,922,884,422,708,710,148,597,489,218,400,819,752,941,689,346,473,624,919,325,58,916,220,792,427,862,908,411,642,224,369,0,584,565,982,679,536,808,443,45,490,9,27,79,627,494,293,601,570,802,781,255,880,322,636,756,172,718,902,836,593,351,720,15,748,913,478,113,380,844,186,964,378,798,534,628,833,973,811,66,231,610,335,194,685,885,646,950,136,619,143,229,397,949,822,841,723,212,777,554,959,468,485,813,758,538,995,991,629,789,661,672,865,360,94,546,810,253,86,945,856,986,409,772,652,809,635,319,530,659,93,33,711,277,271,665,778,62,520,510,318,989,830,391,716,540,404,935,684,767,980,582,158,291,228,280,835,977,760,150,649,937,599,290,952,926,217,932,289,951,169,269,49,316,497,571,630,574,545,622,783,264,693,873,281,696,859,552,286,559,878,115,116,41,433,4,21,625,329,978,78,876,735,965,474,839,794,243,471,749,721,90,747,820,147,127,190,477,915,666,531,20,680,412,633,837,948,953,307,877,336,355,241,385,889,914,87,773,107,999,417,698,483,444,248,309,11,179,688,609,22,997,71,304,141,780,660,981,568,838,366,171,154,161,120,569,674,162,445,522,98,185,753,697,496,528,785,613,757,883,254,425,893,214,519,732,208,508,200,740,249,257,448,912,137,818,805,787,112,103,134,631,492,963,252,432,102,480,539,53,38,616,888,960,82,640,73,29,816,527,701,924,769,566,743,406,509,303,804,193,436,340,790,437,191,605,240,387,637,276,118,64,421,936,746,891,365,591,46,144,515,996,514,655,870,198,170,741,897,934,203,223,392,114,966,403,943,974,375,650,771,806,513,177,359,117,226,544,896,327,189,737,585,100,111,807,713,990,491,714,686,472,653,529,183,56,875,402,549,381,920,388,503,192,10,526,704,470,238,353,867,486,717,133,506,182,580,199,338,918,703,299,754,611,449,695]","arrowleft","","true","0","1","300","1000","[""0056_N1000_K0300_CLIQUE"",""0092_N1000_K0300_NOCLIQUE""]"
"","","","","","audio-keyboard-response","50","212726","0.0-49.0-0.0-1.0","","null","audio_feedback/right/coin01.mp3","null","","","","","0","1","300","1000","[""0056_N1000_K0300_CLIQUE"",""0092_N1000_K0300_NOCLIQUE""]"
"","","","","","canvas-keyboard-response","51","216381","0.0-50.0-0.0-0.0","","841","","arrowleft","[325,239,547,959,641,920,243,395,762,274,551,934,769,781,765,688,153,123,205,469,529,927,794,943,327,83,115,334,322,392,448,444,614,691,725,969,329,957,134,778,15,170,116,611,661,386,882,886,97,20,472,775,655,952,495,385,620,915,627,951,62,256,966,651,970,146,972,901,810,79,797,740,522,838,214,900,685,657,413,833,52,732,57,401,865,874,834,682,12,144,60,84,174,976,372,826,447,290,284,806,764,621,880,913,736,592,307,615,814,585,988,222,293,451,47,110,560,335,782,613,48,126,6,59,360,982,439,519,998,598,194,975,693,671,518,478,506,356,528,908,259,403,496,545,94,945,359,616,135,650,279,446,683,644,9,217,238,961,387,791,157,379,304,696,679,606,374,369,878,724,555,703,783,718,850,29,681,16,354,917,168,659,44,721,73,271,339,567,371,467,617,151,349,150,867,278,463,202,89,786,796,807,964,65,665,270,876,742,542,306,111,141,462,757,726,103,904,512,332,549,198,827,459,974,689,924,700,548,429,232,642,983,936,612,431,264,350,699,758,382,483,415,653,294,624,856,731,774,124,520,875,489,600,189,738,914,505,383,187,811,328,109,8,711,3,538,195,358,104,98,32,787,309,188,892,931,773,272,300,849,176,589,513,845,93,790,916,105,353,166,910,286,925,423,494,241,720,182,112,521,414,303,178,295,971,626,486,318,412,967,106,862,730,812,864,155,745,432,516,963,546,912,196,454,766,85,5,384,991,51,355,268,905,234,574,543,848,320,362,999,646,37,748,533,846,819,211,944,722,347,490,823,61,128,180,361,750,795,754,873,938,977,253,591,297,799,425,96,610,995,636,340,99,568,942,579,118,582,484,556,631,28,35,440,471,557,869,299,417,58,937,407,903,257,203,22,889,706,717,895,236,411,226,960,276,337,419,416,695,69,503,629,302,375,33,441,676,248,723,923,54,843,165,955,449,265,108,131,456,466,212,715,345,42,76,167,443,763,861,792,719,275,40,523,793,687,596,622,338,38,993,767,436,577,752,204,477,475,839,907,948,996,608,450,319,507,618,879,851,885,654,857,863,228,92,250,561,947,201,594,30,888,324,965,565,399,656,244,673,326,258,868,10,870,485,980,87,480,342,939,231,981,802,872,181,121,524,517,25,566,954,550,367,541,487,784,389,107,235,921,836,298,209,64,152,744,321,161,801,225,647,741,602,263,822,366,220,704,193,968,330,223,277,310,632,185,866,410,53,312,316,364,909,497,896,224,816,840,994,442,707,424,130,578,4,41,406,269,660,13,261,145,428,230,405,576,780,713,821,853,586,855,929,737,457,933,216,260,709,678,21,922,539,422,597,935,63,986,266,973,898,630,160,525,859,393,292,958,772,777,139,686,333,771,177,580,639,535,702,735,883,891,805,461,978,75,100,408,19,273,953,493,894,729,242,287,344,890,1,341,871,628,562,635,670,90,828,701,421,352,7,712,351,906,127,558,11,305,24,66,481,949,829,813,820,501,308,474,169,680,365,400,331,815,990,666,137,887,785,530,71,240,398,603,798,690,136,997,433,675,573,45,830,588,697,652,172,267,808,500,583,753,357,143,251,638,743,81,117,928,229,491,572,479,527,390,184,464,590,692,734,749,604,581,101,564,208,68,800,158,154,420,584,476,119,488,281,120,74,470,940,571,404,526,609,17,498,31,637,946,768,605,2,962,18,658,133,455,218,388,739,86,82,283,832,569,140,78,164,499,633,989,34,554,544,987,67,698,36,716,138,156,601,818,751,714,779,984,192,370,452,465,760,664,183,343,919,710,186,508,142,23,91,173,860,831,662,619,227,252,985,950,531,595,694,842,162,789,640,210,175,540,623,884,502,445,593,817,677,391,323,847,705,511,313,509,430,221,114,648,858,149,926,296,113,262,844,95,199,233,918,663,727,77,72,402,249,376,761,213,237,553,373,159,733,438,254,27,70,426,56,255,804,346,899,280,245,825,979,197,148,460,492,397,667,132,897,668,756,206,125,570,435,179,835,755,575,191,396,190,599,563,532,291,368,932,770,207,992,941,515,336,0,418,841,468,643,634,482,437,171,246,669,552,314,409,809,55,282,536,645,458,394,215,747,380,510,50,537,247,434,708,39,824,684,852,893,14,289,956,122,200,473,649,514,88,363,381,803,49,587,163,728,607,129,881,147,911,102,672,80,453,930,301,315,288,837,854,776,625,902,559,674,26,348,877,504,43,378,219,534,427,317,788,759,746,285,46,311,377]","arrowleft","","true","0","2","267","1000","[""0074_N1000_K0267_CLIQUE"",""0061_N1000_K0267_NOCLIQUE""]"
"","","","","","audio-keyboard-response","52","217386","0.0-50.0-0.0-1.0","","null","audio_feedback/right/coin01.mp3","null","","","","","0","2","267","1000","[""0074_N1000_K0267_CLIQUE"",""0061_N1000_K0267_NOCLIQUE""]"
"","","","","","canvas-keyboard-response","53","220841","0.0-51.0-0.0-0.0","","706","","arrowright","[792,47,857,227,345,420,727,770,266,664,730,473,722,650,281,163,233,698,125,669,902,170,177,614,586,736,858,640,887,85,377,11,49,215,778,612,644,999,988,223,414,838,632,557,273,276,655,507,452,488,417,38,719,32,665,173,716,545,260,407,131,728,530,829,459,670,966,416,929,411,464,944,491,497,470,680,900,153,51,796,674,228,563,247,834,325,864,288,521,824,306,703,147,687,782,994,591,209,199,205,23,973,651,378,175,565,114,432,806,541,977,946,245,754,556,469,593,370,833,486,155,673,243,297,622,250,663,760,841,156,745,601,214,774,888,15,786,159,2,413,611,997,324,344,564,865,289,216,63,61,123,753,167,803,623,505,597,585,388,801,705,225,908,811,17,725,342,923,249,536,450,848,376,788,661,135,840,558,361,815,406,649,161,872,683,520,608,779,337,762,860,524,784,363,359,287,930,374,578,793,77,512,724,648,334,207,379,666,206,995,562,93,598,138,765,269,633,454,502,814,128,627,656,427,668,354,839,952,437,943,95,547,69,501,208,769,535,318,434,587,235,749,46,239,572,513,933,968,431,710,50,878,907,924,542,969,274,229,284,372,4,660,961,616,615,582,737,941,467,653,35,350,323,540,282,873,882,137,430,98,48,104,316,202,117,679,921,13,948,940,210,230,581,628,335,518,482,672,939,904,256,895,375,39,12,278,387,956,757,80,785,381,478,353,33,294,397,509,120,246,905,892,75,404,439,97,733,331,654,903,494,617,285,707,551,624,560,527,813,237,647,409,369,498,886,162,927,867,240,19,124,912,197,609,752,684,978,514,144,315,798,263,490,30,763,972,607,52,440,983,438,190,126,405,893,913,301,936,203,400,134,588,72,816,636,885,844,201,667,136,897,259,879,347,366,460,637,781,831,910,508,321,319,132,925,861,59,314,810,96,444,66,458,862,852,40,619,492,446,102,807,658,127,962,731,258,89,739,721,109,6,8,689,777,261,876,146,822,634,922,554,714,441,37,74,935,991,271,213,830,495,553,618,575,732,559,504,465,759,573,652,926,764,853,871,433,329,313,9,697,242,827,517,222,309,279,365,485,475,818,447,0,382,989,755,241,500,356,506,917,620,394,577,16,358,741,412,548,543,105,428,436,884,195,154,639,317,43,751,253,130,883,479,280,25,821,483,726,251,36,970,106,364,385,645,157,847,964,748,299,693,149,675,843,534,682,71,819,348,599,963,854,510,481,704,914,275,850,24,133,898,646,768,496,349,53,525,191,532,435,975,456,21,911,602,808,958,791,993,83,373,57,523,7,181,856,286,549,715,45,955,402,443,371,380,425,290,519,866,583,625,711,590,621,78,351,178,771,474,73,744,499,336,264,797,151,595,566,974,56,610,550,472,112,701,76,695,328,34,696,291,171,846,594,842,529,426,576,211,790,466,657,99,569,457,189,804,129,686,756,219,877,931,333,429,196,160,836,65,91,27,787,976,396,638,31,139,152,29,453,26,775,142,86,166,720,484,305,489,87,268,119,986,522,383,870,503,445,812,980,188,740,863,659,735,296,232,330,180,368,64,996,828,463,298,367,198,960,802,255,662,101,55,94,690,212,826,300,561,68,265,700,916,82,580,293,92,538,339,712,41,234,471,949,629,845,945,224,90,671,938,165,257,115,539,934,493,340,44,950,327,283,603,338,341,442,723,20,832,823,186,919,678,967,384,571,10,343,220,942,122,22,487,164,185,772,148,849,410,480,332,984,537,915,141,392,642,800,881,894,528,750,421,920,982,761,218,254,183,613,932,174,204,3,193,81,641,937,677,579,422,699,111,742,880,918,346,889,179,352,172,304,476,688,399,681,238,424,477,158,79,252,825,355,14,584,145,606,702,965,295,676,308,391,708,103,448,231,869,60,747,758,817,217,70,767,187,84,567,570,107,451,140,28,780,272,267,515,360,795,738,143,200,194,533,835,362,809,262,418,555,310,320,630,552,326,954,899,182,42,691,783,635,896,277,226,18,108,766,909,244,168,389,713,957,455,951,67,626,292,54,398,589,596,998,311,692,568,461,574,516,110,100,947,734,874,799,906,386,58,5,408,805,449,890,990,789,794,729,718,694,706,113,959,1,88,526,717,322,121,176,401,643,395,169,868,511,302,419,971,468,393,992,236,928,221,390,901,307,600,184,62,979,981,709,531,116,592,605,820,851,953,987,891,604,859,746,415,855,118,544,743,192,357,685,837,423,773,631,248,403,776,312,303,875,270,546,462,985,150]","arrowright","","true","0","3","267","1000","[""0040_N1000_K0267_NOCLIQUE"",""0087_N1000_K0267_CLIQUE""]"
"","","","","","audio-keyboard-response","54","221844","0.0-51.0-0.0-1.0","","null","audio_feedback/right/coin01.mp3","null","","","","","0","3","267","1000","[""0040_N1000_K0267_NOCLIQUE"",""0087_N1000_K0267_CLIQUE""]"
"","","","","","canvas-keyboard-response","55","226021","0.0-52.0-0.0-0.0","","704","","arrowleft","[731,12,816,646,786,662,648,156,320,682,590,167,869,620,322,587,616,693,624,586,842,974,366,151,336,542,669,462,387,668,529,163,863,182,51,48,791,558,871,8,689,429,94,446,986,959,407,277,776,520,38,288,499,874,417,600,291,973,7,866,934,853,256,932,515,289,703,392,335,346,903,716,104,49,847,244,562,223,521,514,905,237,962,382,243,726,268,833,90,914,837,438,99,76,11,640,533,933,83,752,626,875,423,697,230,999,464,455,415,210,199,377,979,305,862,610,841,290,544,596,145,303,460,889,978,231,140,495,186,796,792,422,101,480,522,57,170,52,604,457,300,878,80,211,304,414,274,343,201,701,158,704,496,425,373,535,428,824,175,91,814,441,96,917,250,46,348,479,594,222,850,627,87,393,450,531,34,665,981,502,497,388,75,126,773,106,886,228,32,409,142,313,670,890,1,261,705,820,782,516,353,59,270,809,137,526,507,549,47,473,857,420,205,977,416,937,864,286,154,470,177,579,251,252,581,157,778,638,641,33,329,970,84,756,766,743,938,194,827,839,458,982,736,4,362,687,21,613,902,685,456,810,831,427,120,576,143,306,30,110,287,376,233,372,144,396,118,333,768,541,642,630,828,858,113,406,402,241,368,673,389,20,432,780,43,411,65,298,852,10,227,557,989,702,439,419,639,537,919,976,894,735,245,879,527,159,968,547,584,198,275,657,311,821,746,985,654,484,259,948,240,426,622,844,345,761,993,226,190,465,854,856,122,408,371,950,196,819,324,947,56,494,172,940,966,763,358,282,35,724,166,721,924,715,939,102,943,912,860,53,71,915,355,130,679,880,848,836,45,846,988,560,180,88,146,341,729,395,189,491,431,751,40,808,468,645,112,621,357,103,629,331,472,327,82,885,452,141,469,859,160,555,445,162,834,24,481,399,803,487,176,851,566,597,565,942,257,961,235,745,958,680,461,224,589,794,888,711,152,129,459,832,475,633,930,619,307,478,391,70,784,738,22,614,332,551,575,747,887,577,554,424,297,770,363,636,184,248,173,213,872,239,6,601,734,315,418,923,571,421,61,463,280,435,474,204,150,643,258,779,667,691,618,128,980,563,574,359,954,953,956,203,994,728,131,876,755,242,169,41,928,926,949,111,826,983,595,132,975,410,200,771,692,236,605,26,510,281,598,631,55,401,676,870,314,891,785,899,136,440,720,815,873,987,615,849,266,42,509,884,582,960,757,451,394,694,578,168,92,165,488,492,164,98,823,108,652,717,299,9,378,265,413,374,913,909,718,264,895,688,29,347,602,310,364,569,936,15,528,187,881,221,477,758,309,806,218,580,179,188,628,352,742,375,995,663,749,325,119,897,153,592,79,538,530,74,81,965,147,599,225,681,501,972,741,911,644,935,209,271,805,564,16,302,296,647,793,812,898,517,830,215,293,95,678,317,797,518,927,506,63,922,790,750,904,412,868,260,272,508,607,448,764,611,123,570,178,666,273,929,552,66,637,78,674,490,504,539,818,546,727,877,865,14,807,498,135,754,37,247,984,707,2,316,765,777,262,208,85,365,998,505,675,349,253,124,482,951,486,683,523,23,276,698,632,54,992,89,901,234,267,760,174,829,798,232,606,811,723,31,737,73,801,525,269,318,212,883,18,360,342,543,712,686,326,453,319,442,292,946,759,116,323,753,788,380,699,540,383,0,197,139,467,5,817,86,390,454,149,370,36,50,900,740,115,398,27,802,893,593,656,658,379,534,443,351,568,466,513,908,148,971,671,838,434,369,556,308,567,403,767,77,996,246,635,301,254,690,72,114,573,625,583,433,700,229,822,294,813,945,775,591,278,216,710,312,907,719,334,25,125,109,524,714,944,181,896,795,444,660,356,748,384,861,93,263,609,3,941,485,882,39,781,255,664,845,561,997,840,350,193,449,339,344,127,708,64,121,100,684,969,238,285,340,603,739,634,386,476,283,28,906,471,44,134,328,730,725,572,532,991,835,677,405,696,787,361,185,867,192,385,60,650,916,195,400,661,957,171,608,117,138,800,799,744,918,68,774,279,588,381,955,952,789,967,519,133,214,155,219,500,653,207,585,612,206,706,436,783,655,437,825,493,651,202,722,330,553,769,161,550,220,354,733,503,536,964,69,963,183,512,713,709,58,397,191,695,13,649,217,430,920,925,105,855,337,67,338,19,990,97,732,447,772,659,107,931,672,489,892,548,921,404,559,762,804,295,545,511,910,17,617,843,623,249,62,367,321,483,284]","arrowleft","","true","0","4","233","1000","[""0013_N1000_K0233_CLIQUE"",""0089_N1000_K0233_NOCLIQUE""]"
"","","","","","audio-keyboard-response","56","227025","0.0-52.0-0.0-1.0","","null","audio_feedback/right/coin01.mp3","null","","","","","0","4","233","1000","[""0013_N1000_K0233_CLIQUE"",""0089_N1000_K0233_NOCLIQUE""]"
"","","","","","canvas-keyboard-response","57","230810","0.0-53.0-0.0-0.0","","807","","arrowleft","[37,589,531,298,493,628,755,633,707,549,266,22,349,303,366,557,742,543,805,12,326,130,827,332,424,875,436,812,605,176,874,503,913,728,310,597,96,802,33,466,231,75,918,536,473,527,401,876,613,361,215,388,476,591,462,635,18,393,538,838,245,790,365,794,965,849,449,382,791,463,640,237,558,280,157,212,477,771,94,658,223,666,389,762,626,121,654,26,160,102,601,110,405,752,510,899,440,976,395,900,843,866,668,571,24,368,828,574,64,291,159,494,786,692,648,709,68,155,105,131,312,5,177,318,715,144,585,431,427,671,345,233,747,739,315,445,678,20,937,247,84,727,807,622,959,653,472,410,297,721,757,402,275,455,857,162,703,98,198,916,887,226,946,577,263,586,894,306,663,619,810,552,719,475,292,70,422,220,447,261,92,732,726,708,486,225,136,960,443,355,404,457,686,803,939,114,448,982,287,269,891,471,185,244,617,467,430,621,550,509,816,428,265,255,931,392,40,446,496,697,763,208,32,804,848,342,724,133,73,740,42,88,972,414,352,108,596,343,750,256,307,968,194,725,251,753,65,925,63,451,460,314,112,581,901,190,766,148,180,562,387,498,590,1,249,200,81,262,722,400,774,492,824,830,936,487,333,583,673,659,993,505,530,698,458,416,321,716,386,39,524,199,143,253,844,733,996,50,100,28,0,347,813,781,787,580,125,74,977,149,649,920,189,689,134,699,359,285,759,521,741,138,712,603,701,817,731,357,141,273,206,878,664,903,181,608,565,942,283,795,482,147,856,598,811,775,453,560,922,3,880,396,13,943,630,895,434,696,15,461,488,57,886,415,195,884,374,459,662,765,124,325,567,8,235,61,495,847,711,687,55,80,320,917,284,540,783,49,319,264,478,2,863,680,611,595,99,217,723,432,602,796,293,523,956,970,896,782,656,433,243,975,408,398,483,456,78,439,675,300,429,111,59,978,267,129,631,938,413,974,191,770,569,806,16,240,748,756,277,328,358,985,957,239,213,592,363,921,282,792,594,82,522,385,216,182,152,643,579,599,438,584,109,991,518,743,954,378,489,118,270,868,969,883,736,344,785,961,305,604,90,202,222,871,313,346,836,768,97,821,809,815,334,773,822,452,661,691,23,559,370,644,17,983,123,309,704,383,508,464,989,279,551,587,930,764,209,228,511,554,196,870,967,904,6,252,935,295,259,254,853,979,268,745,207,865,944,634,882,166,304,674,981,135,369,915,541,679,83,860,713,425,54,248,624,533,113,906,940,377,682,729,582,647,502,572,406,79,919,638,607,154,274,469,238,479,373,169,484,72,442,150,197,737,992,339,694,777,788,515,999,519,214,372,735,491,893,412,734,501,683,949,677,778,423,973,497,553,851,652,56,103,845,525,62,86,290,25,351,167,690,139,163,852,545,9,987,676,10,384,588,106,881,612,537,126,718,426,986,529,441,526,564,914,606,573,819,219,710,998,850,826,104,474,754,444,281,898,514,534,184,119,36,837,842,855,31,578,832,210,988,779,364,720,38,859,542,841,29,769,829,376,632,296,873,513,642,749,660,330,928,224,730,544,171,627,962,623,450,278,609,91,146,820,953,60,760,71,517,340,934,420,172,872,637,600,767,204,187,327,618,705,695,905,801,834,356,421,490,30,407,780,276,161,862,738,85,419,831,286,685,655,867,188,908,570,435,95,353,854,168,833,966,45,116,955,556,322,717,646,242,958,702,35,950,576,362,897,927,751,555,869,4,165,744,651,302,700,175,145,535,137,548,193,825,128,561,670,299,984,776,945,21,929,814,520,797,994,317,980,380,909,641,758,272,933,77,27,140,672,203,746,512,360,158,311,911,230,329,688,614,76,669,170,7,403,47,480,211,409,122,835,892,260,468,990,616,183,151,66,335,11,232,706,48,951,192,924,44,907,294,889,516,46,568,948,331,539,381,964,417,14,178,506,218,650,861,127,885,667,164,890,546,793,375,481,336,107,528,902,69,338,257,693,179,323,186,470,772,115,173,354,823,593,615,337,639,201,43,800,41,241,390,52,499,316,963,371,229,437,221,174,532,142,620,657,153,246,454,258,67,665,840,34,301,941,205,391,500,120,288,394,418,227,93,132,156,636,566,808,250,53,818,58,563,271,864,952,308,504,910,465,858,912,789,846,971,51,877,997,684,798,799,324,932,236,411,89,761,610,714,645,289,923,625,879,117,784,397,947,926,547,367,629,101,399,19,681,888,87,341,234,348,507,839,379,485,575,350,995]","arrowleft","","true","0","5","233","1000","[""0084_N1000_K0233_CLIQUE"",""0064_N1000_K0233_NOCLIQUE""]"
"","","","","","audio-keyboard-response","58","231804","0.0-53.0-0.0-1.0","","null","audio_feedback/right/coin01.mp3","null","","","","","0","5","233","1000","[""0084_N1000_K0233_CLIQUE"",""0064_N1000_K0233_NOCLIQUE""]"
"","","","","","canvas-keyboard-response","59","235441","0.0-54.0-0.0-0.0","","818","","arrowleft","[57,223,331,436,435,949,194,712,32,565,552,424,203,153,278,893,80,217,457,68,927,406,303,408,963,810,107,540,15,725,921,521,79,372,322,870,308,904,922,774,252,464,576,501,35,878,714,618,503,388,977,911,96,280,623,930,45,422,999,617,635,471,858,536,354,367,679,684,727,76,980,299,568,132,383,81,403,888,115,740,156,467,778,662,719,26,660,261,416,852,994,695,222,38,582,339,247,693,391,952,846,599,82,410,681,350,871,270,10,442,484,281,147,760,891,386,821,586,612,528,337,933,159,762,208,409,563,3,702,0,212,106,141,399,795,957,298,515,483,710,333,513,669,485,122,970,248,787,705,250,167,954,454,824,387,453,419,946,591,244,805,680,320,542,135,116,205,389,34,901,755,786,451,351,879,341,828,177,404,242,800,511,245,530,616,989,730,256,123,126,368,149,793,756,226,102,291,598,749,8,553,230,523,948,433,642,584,193,249,47,659,815,463,197,365,445,375,875,570,173,5,877,283,655,804,667,295,757,865,819,867,560,770,130,133,975,361,894,393,631,398,735,951,639,526,991,769,213,166,344,486,314,925,157,390,825,919,85,184,240,964,923,94,236,358,27,171,41,427,596,178,541,20,550,520,189,143,163,275,323,17,641,610,172,938,688,286,366,837,255,103,455,926,775,168,86,748,928,646,908,258,392,699,608,186,569,961,592,918,59,215,221,470,271,325,117,447,493,101,987,545,763,494,478,698,91,42,260,160,746,606,874,93,737,849,676,718,862,664,104,74,31,211,87,722,188,444,71,274,741,180,981,833,144,557,650,207,527,182,13,500,384,696,227,648,615,742,49,241,889,771,224,549,324,6,440,12,706,573,913,892,583,697,397,859,758,566,534,507,959,593,200,266,567,812,61,18,816,967,355,164,69,619,304,62,235,910,657,652,191,506,811,187,544,788,134,839,720,548,190,571,218,458,607,909,529,998,413,686,850,302,246,428,880,53,475,694,876,711,311,100,414,974,950,601,636,60,743,855,421,23,674,292,794,231,165,209,385,931,77,806,826,675,673,362,590,347,654,273,559,4,947,233,717,267,687,268,856,24,452,297,716,319,866,63,128,807,971,263,306,417,588,822,380,412,97,845,750,25,517,692,2,349,863,682,765,754,228,522,818,327,546,514,666,343,401,969,158,72,997,572,449,376,491,505,293,836,917,672,535,382,418,420,487,357,982,425,781,127,614,336,462,835,992,937,430,192,169,316,538,995,519,792,396,108,539,105,625,847,844,254,196,111,656,423,796,785,897,400,373,124,33,609,313,66,668,119,907,155,988,620,402,121,670,29,564,129,176,585,84,780,431,90,276,817,884,747,148,9,377,629,843,405,896,798,751,960,834,95,578,900,827,729,346,779,912,279,137,369,146,739,459,685,489,972,547,204,886,651,525,637,37,638,154,509,229,476,690,978,595,352,733,99,289,577,736,429,887,713,649,554,671,371,895,52,78,984,407,40,110,474,562,851,956,139,360,574,857,310,753,643,239,482,496,481,50,831,628,814,92,259,434,379,633,813,437,940,898,359,703,216,936,728,645,985,225,394,317,1,600,773,353,237,809,162,802,46,965,277,356,556,945,558,7,510,338,498,83,43,914,492,54,381,524,789,480,958,448,443,860,112,738,581,179,150,294,841,446,644,183,587,488,861,906,764,56,411,469,232,284,340,665,993,555,161,185,335,73,318,206,307,89,647,315,75,195,14,864,70,640,580,942,64,198,305,829,370,885,799,724,19,415,512,715,288,537,803,632,903,902,823,731,868,272,426,472,508,797,767,499,996,820,175,88,181,745,630,332,309,466,838,477,973,899,441,55,151,36,986,915,170,842,801,125,627,531,202,251,761,808,28,597,518,30,334,890,140,661,759,138,621,321,44,734,990,199,301,776,854,605,257,214,869,653,626,983,663,783,677,594,58,920,114,461,152,962,790,479,131,265,329,374,330,460,872,726,39,234,929,219,432,264,456,395,701,782,766,976,11,67,533,438,345,924,378,853,532,979,296,490,342,934,282,300,504,708,791,109,752,269,873,285,287,145,136,16,772,966,328,48,118,495,262,502,113,65,832,363,220,678,589,768,830,210,700,611,312,561,882,51,732,604,22,709,634,723,575,142,468,603,943,777,953,916,497,840,465,473,243,689,439,905,944,941,174,579,939,848,120,364,955,658,721,624,613,935,290,348,883,932,602,516,881,253,98,543,551,326,21,683,968,238,450,744,622,704,201,784,691,707]","arrowleft","","true","0","6","217","1000","[""0058_N1000_K0217_CLIQUE"",""0001_N1000_K0217_NOCLIQUE""]"
"","","","","","audio-keyboard-response","60","236445","0.0-54.0-0.0-1.0","","null","audio_feedback/right/coin01.mp3","null","","","","","0","6","217","1000","[""0058_N1000_K0217_CLIQUE"",""0001_N1000_K0217_NOCLIQUE""]"
"","","","","","canvas-keyboard-response","61","240231","0.0-55.0-0.0-0.0","","870","","arrowleft","[422,985,77,551,602,951,72,544,35,838,779,364,59,728,179,579,320,598,3,673,377,246,296,216,415,635,553,394,574,958,492,175,169,556,950,326,133,338,271,716,43,965,98,962,36,919,531,618,162,305,13,439,99,955,664,827,117,7,291,153,769,65,621,573,523,504,795,599,683,290,607,406,740,957,252,909,656,300,111,788,318,747,219,370,939,971,382,652,880,896,211,350,691,566,770,986,329,576,173,507,593,393,130,538,89,251,202,519,778,554,882,843,398,764,564,180,719,489,341,550,185,762,961,783,800,859,446,438,427,530,126,170,259,395,78,385,717,182,670,425,8,79,203,916,331,244,910,756,81,214,229,347,623,660,866,470,506,526,662,383,793,64,937,671,109,941,603,633,632,380,108,181,558,797,75,754,353,680,703,592,151,903,462,638,856,48,706,918,325,336,85,681,53,588,822,411,497,186,789,988,330,280,796,708,39,895,975,190,847,710,705,344,833,987,898,772,690,525,867,488,449,864,68,818,487,434,585,146,285,292,782,748,148,436,967,327,773,570,468,118,613,348,969,687,648,997,555,630,774,366,37,228,56,658,400,102,835,207,286,606,226,132,624,73,268,535,471,749,776,479,481,651,808,402,865,707,340,595,346,147,437,926,817,157,560,828,189,243,512,698,45,368,44,883,548,539,387,416,334,653,925,337,287,493,840,57,992,801,139,552,529,582,448,359,990,4,811,534,408,655,790,105,498,1,423,178,721,677,768,794,389,55,517,963,587,110,275,510,500,935,457,31,720,845,136,200,994,960,63,787,97,722,278,429,684,137,2,545,810,403,578,563,289,692,384,42,521,921,727,120,726,575,744,785,629,643,15,549,369,765,640,753,6,375,897,420,804,733,428,899,668,821,279,695,559,58,194,964,199,208,524,215,392,163,998,645,679,258,100,282,571,875,659,569,405,812,780,752,360,815,115,351,924,654,161,514,197,193,945,583,379,91,991,949,32,547,62,929,315,316,901,267,911,723,612,88,234,30,791,19,201,803,150,528,978,877,608,342,741,982,966,121,761,637,164,784,520,298,956,724,887,458,610,913,631,50,293,577,686,156,546,619,885,84,491,854,977,917,27,484,49,508,355,594,905,166,452,237,831,210,419,407,855,165,212,22,443,829,10,974,247,611,270,751,144,442,160,609,266,750,900,476,253,565,414,494,890,310,894,396,213,217,851,388,739,272,601,650,135,513,283,953,999,757,373,238,61,92,322,376,480,94,113,672,188,846,269,248,734,946,590,352,294,134,533,116,125,191,729,264,254,781,730,119,262,309,87,947,562,642,51,311,40,806,979,799,501,622,591,849,809,453,580,948,912,152,872,678,302,299,82,323,858,536,141,221,397,192,597,277,540,104,424,543,67,24,412,685,586,871,472,23,129,440,18,699,934,952,281,857,198,307,138,171,682,463,841,261,709,276,250,273,288,236,343,123,475,814,902,615,516,490,54,697,839,372,605,459,713,933,220,112,230,240,712,542,792,667,522,646,29,746,404,114,627,715,634,14,122,943,930,584,891,863,140,204,239,145,869,604,467,317,938,763,413,433,142,844,432,28,503,968,923,743,312,265,33,71,143,431,450,358,473,927,689,374,758,802,303,983,177,96,257,541,361,477,888,837,357,771,86,9,714,183,231,319,461,241,620,381,321,657,940,786,390,418,93,527,989,993,205,260,826,159,187,725,25,349,354,426,775,626,922,505,195,973,614,70,702,825,676,26,95,693,38,766,465,297,995,731,149,674,371,873,482,444,52,245,386,176,920,66,904,537,60,842,421,466,223,735,441,295,206,813,589,532,391,332,878,596,74,647,881,628,345,399,931,80,675,131,738,242,478,106,509,11,168,625,515,401,456,830,495,460,886,225,233,850,737,496,464,870,848,736,561,568,928,455,816,567,777,914,356,511,232,447,256,499,767,17,742,704,367,944,906,365,755,274,21,301,518,435,884,103,823,222,154,34,819,936,313,409,701,661,824,557,760,696,469,892,665,0,218,798,483,868,700,227,174,805,853,20,16,980,255,616,167,834,639,158,124,304,410,308,333,155,932,942,976,249,600,474,83,861,101,694,46,417,718,996,663,669,339,224,445,688,832,581,328,314,711,915,128,486,196,954,69,876,820,362,209,836,107,90,324,893,745,47,972,451,76,378,970,636,860,889,454,306,732,666,485,127,959,874,335,908,644,41,759,981,184,852,235,879,5,172,649,617,502,572,984,263,641,907,430,363,12,284,862,807]","arrowleft","","true","0","7","217","1000","[""0021_N1000_K0217_CLIQUE"",""0015_N1000_K0217_NOCLIQUE""]"
"","","","","","audio-keyboard-response","62","241225","0.0-55.0-0.0-1.0","","null","audio_feedback/right/coin01.mp3","null","","","","","0","7","217","1000","[""0021_N1000_K0217_CLIQUE"",""0015_N1000_K0217_NOCLIQUE""]"
"","","","","","canvas-keyboard-response","63","244501","0.0-56.0-0.0-0.0","","532","","arrowleft","[823,164,736,298,523,742,951,111,371,638,259,912,496,361,254,88,25,764,600,897,113,985,661,423,13,540,578,996,419,954,599,236,916,944,598,553,932,780,197,141,827,636,442,368,874,95,261,52,805,478,789,337,559,748,675,660,677,404,626,350,521,1,232,588,519,945,861,403,229,408,173,720,157,654,84,832,594,372,706,768,807,865,585,249,902,980,502,322,989,184,497,379,830,77,529,926,713,537,187,325,172,775,664,284,477,840,914,32,5,828,370,15,21,170,364,552,64,304,556,611,928,962,223,911,398,871,610,104,628,242,650,490,424,672,211,589,571,147,53,163,57,733,754,854,714,891,905,959,354,506,988,339,575,570,307,297,391,488,294,866,10,549,743,227,216,277,845,687,40,844,495,98,904,179,781,455,457,563,334,739,75,387,868,360,265,992,130,437,697,247,895,375,466,788,997,633,963,810,505,279,462,71,601,54,893,938,395,797,792,470,224,777,155,772,909,131,392,315,264,194,37,124,688,883,136,930,864,456,85,139,96,241,689,121,68,615,186,406,504,974,324,958,813,608,621,393,110,881,774,901,183,122,62,846,749,309,917,572,310,459,244,936,333,447,658,696,889,214,569,306,409,634,681,946,767,16,656,534,838,509,653,821,513,906,597,300,480,427,829,283,530,645,176,964,683,900,947,36,417,382,971,718,438,701,710,50,269,869,566,870,397,908,631,758,983,518,975,313,102,567,987,11,699,690,114,192,469,918,238,250,295,950,547,251,346,941,461,226,933,380,327,953,329,465,137,981,998,436,199,853,4,443,143,554,405,613,686,282,815,381,233,256,812,702,440,849,390,66,503,695,669,616,35,583,915,673,491,48,786,716,263,651,347,198,458,92,414,118,454,802,609,898,663,691,725,421,543,647,30,153,59,357,106,74,762,151,724,627,814,848,231,952,800,558,472,643,204,286,399,544,833,969,937,642,213,793,892,976,640,51,450,863,108,428,47,161,515,878,990,678,852,396,384,994,751,943,921,580,492,2,584,922,539,19,753,0,429,709,115,464,806,415,860,290,649,335,39,452,949,973,605,287,18,193,855,340,474,156,483,402,967,652,517,744,924,668,316,311,919,467,330,839,731,641,635,795,704,596,551,425,729,38,70,972,674,45,374,293,520,887,385,107,234,318,811,292,420,349,305,246,12,493,43,587,604,700,579,3,341,747,150,745,487,979,752,196,557,707,416,965,771,978,281,145,577,624,882,355,123,581,746,629,960,100,785,790,888,934,782,323,595,344,407,843,819,968,548,592,501,546,302,791,831,162,134,728,78,326,880,394,356,149,69,235,804,60,167,680,400,603,26,769,90,117,237,433,119,735,209,146,665,180,907,9,352,332,23,79,607,574,482,761,820,773,859,7,931,612,252,135,431,809,410,508,723,535,46,896,317,248,639,267,920,148,555,494,532,42,632,240,561,708,766,378,362,694,818,885,514,448,538,29,449,171,890,288,817,711,142,24,858,564,320,657,484,576,460,314,76,825,260,801,94,207,441,299,879,622,816,253,481,212,541,834,434,618,755,430,522,129,373,133,693,712,201,225,195,376,389,590,343,217,542,319,856,72,500,644,120,986,726,274,453,363,776,245,524,568,939,682,93,175,272,824,620,873,685,894,955,842,528,432,719,228,189,935,794,202,44,268,435,884,359,14,948,105,358,533,91,562,779,411,126,289,6,623,867,169,659,799,181,83,301,586,377,850,386,913,927,206,619,648,903,312,439,991,982,485,970,536,451,531,278,182,342,58,796,34,128,321,851,463,218,717,734,977,22,296,837,353,637,348,512,258,730,177,763,770,475,188,993,220,336,732,703,676,721,208,876,81,956,369,97,803,602,388,778,33,132,383,582,550,940,847,61,178,255,591,666,101,366,510,338,116,617,413,511,285,82,808,560,787,476,486,444,705,328,31,412,67,152,667,276,271,17,966,857,784,112,28,291,200,499,205,168,230,303,545,221,662,243,266,80,760,886,56,165,527,222,99,127,984,872,961,684,103,999,862,138,783,203,757,49,670,87,154,507,190,798,270,741,525,516,275,219,239,957,401,308,160,125,20,877,144,158,679,899,625,925,185,750,646,923,418,759,835,215,210,426,257,671,345,738,692,737,715,262,331,826,174,8,446,27,526,489,498,471,367,841,822,995,65,73,910,365,41,159,875,614,698,191,479,55,593,942,468,445,727,929,573,351,655,740,606,836,63,473,765,273,722,565,630,109,280,422,756,140,89,86,166]","arrowleft","","true","0","8","200","1000","[""0026_N1000_K0200_CLIQUE"",""0091_N1000_K0200_NOCLIQUE""]"
"","","","","","audio-keyboard-response","64","245505","0.0-56.0-0.0-1.0","","null","audio_feedback/right/coin01.mp3","null","","","","","0","8","200","1000","[""0026_N1000_K0200_CLIQUE"",""0091_N1000_K0200_NOCLIQUE""]"
"","","","","","canvas-keyboard-response","65","249631","0.0-57.0-0.0-0.0","","1307","","arrowleft","[534,31,270,221,804,272,195,308,90,245,450,185,172,893,247,916,807,755,146,63,490,716,722,816,671,918,252,968,165,617,602,436,347,435,128,242,872,449,625,189,603,869,838,420,963,50,680,74,298,849,678,935,459,329,740,448,763,137,279,949,388,138,392,558,361,220,792,305,109,473,520,710,234,785,4,870,240,522,299,825,168,814,58,946,721,144,631,337,698,120,697,518,385,986,14,315,964,119,387,443,684,513,688,746,568,590,811,826,690,802,572,971,834,989,897,110,734,928,213,82,757,728,660,66,156,29,750,461,173,431,527,839,54,62,374,908,207,77,669,323,95,92,733,868,402,788,275,44,453,803,622,366,454,854,477,955,962,623,549,833,169,874,912,152,38,606,227,924,294,517,263,536,784,199,11,782,362,593,36,720,296,268,482,524,0,69,3,661,891,559,188,540,125,228,653,487,673,278,610,667,644,148,936,248,571,253,174,40,753,143,85,145,223,974,224,978,783,815,966,972,878,26,311,672,662,445,570,369,233,895,351,988,620,824,114,598,486,67,664,198,848,565,37,754,52,579,845,313,691,967,894,267,191,932,479,876,328,106,139,818,478,888,232,343,857,512,45,937,418,404,557,993,483,134,865,427,817,789,363,919,781,914,257,469,73,538,573,476,715,34,28,942,46,762,215,455,521,235,288,808,836,663,795,430,176,546,368,147,709,996,64,614,485,647,131,425,382,877,529,1,23,446,867,941,241,410,397,982,217,787,408,725,633,577,451,708,576,179,506,39,578,107,898,197,883,335,260,194,47,900,132,687,621,585,885,422,157,306,584,801,703,414,304,202,778,827,204,915,153,892,273,447,149,959,208,390,652,628,594,108,864,495,377,342,508,679,186,302,49,190,470,951,505,675,694,727,659,113,541,615,331,237,434,203,638,57,796,726,214,88,266,357,528,945,7,933,700,749,569,552,586,855,25,618,685,798,160,51,779,735,421,961,950,619,161,533,256,714,458,101,271,873,909,201,222,713,471,682,150,939,303,970,626,665,33,344,640,532,956,491,492,423,822,624,772,944,444,613,516,791,997,696,205,18,850,637,68,497,317,489,9,651,389,775,976,965,881,42,562,474,504,102,345,314,98,920,167,55,236,756,751,523,178,307,980,931,693,676,406,922,952,417,548,564,738,124,717,954,686,910,553,574,183,998,94,375,934,281,378,550,480,496,80,852,353,12,488,126,695,346,537,969,539,823,122,729,381,830,326,297,712,154,957,464,739,468,43,994,367,799,765,860,373,599,677,426,835,769,609,642,159,322,979,761,758,456,258,658,439,419,975,948,320,547,386,902,409,400,566,319,330,111,863,542,551,81,511,530,563,48,105,747,170,705,724,706,543,428,681,925,394,78,230,216,162,501,318,809,401,861,334,907,218,503,212,707,567,484,841,851,65,879,333,768,380,999,276,773,349,166,859,340,424,15,719,151,91,441,210,743,155,6,8,255,730,699,117,103,930,701,13,2,639,348,917,370,59,338,158,846,990,509,211,890,60,605,465,887,583,926,96,22,683,269,163,321,812,985,723,856,142,180,27,911,643,187,896,929,251,828,244,277,589,396,906,290,670,438,514,745,432,555,627,182,776,457,481,630,973,880,177,352,744,72,325,393,41,84,250,580,819,853,70,995,831,61,800,196,415,774,407,226,391,884,86,282,316,810,561,336,500,840,287,300,581,601,862,611,813,786,136,412,135,339,265,21,760,600,301,5,847,133,462,904,472,554,99,901,358,184,718,100,10,649,112,35,650,766,629,243,632,76,612,767,507,413,742,376,645,405,442,843,983,310,494,398,130,741,752,582,359,433,17,295,384,793,286,360,379,977,704,771,372,354,692,858,636,399,200,960,225,958,510,575,264,332,984,467,759,866,365,654,416,820,437,526,127,71,285,466,75,452,770,19,871,499,97,371,655,141,711,259,283,886,171,89,309,882,829,289,764,648,689,411,921,498,403,291,16,842,806,140,350,903,284,702,56,657,635,592,292,731,20,175,493,383,981,556,646,193,229,206,780,992,748,899,531,587,209,164,732,355,219,596,991,249,544,905,777,666,821,93,674,502,519,634,943,797,254,668,607,341,356,938,261,246,844,129,460,312,475,87,889,535,837,794,591,588,597,923,656,736,940,192,913,875,24,525,324,293,115,953,239,53,616,30,262,805,238,515,116,560,608,327,364,604,118,927,440,429,545,790,280,832,231,274,595,737,104,121,987,395,123,641,83,947,32,79,463,181]","arrowleft","","true","0","9","200","1000","[""0062_N1000_K0200_CLIQUE"",""0033_N1000_K0200_NOCLIQUE""]"
"","","","","","audio-keyboard-response","66","250624","0.0-57.0-0.0-1.0","","null","audio_feedback/right/coin01.mp3","null","","","","","0","9","200","1000","[""0062_N1000_K0200_CLIQUE"",""0033_N1000_K0200_NOCLIQUE""]"
"","","","","","canvas-keyboard-response","67","254501","0.0-58.0-0.0-0.0","","805","","arrowright","[967,709,174,744,987,783,635,227,478,504,233,230,213,745,746,21,629,178,323,669,871,115,837,342,881,253,956,55,26,627,775,625,277,25,505,719,815,148,32,542,406,19,688,942,887,191,687,368,257,183,9,706,979,814,577,612,556,647,265,675,203,734,164,75,78,318,214,100,252,985,127,737,266,305,674,1,973,963,576,801,42,643,167,251,803,730,910,4,333,7,256,359,483,66,192,811,939,474,147,262,3,571,945,889,455,751,882,244,672,852,598,197,762,293,445,328,788,373,701,998,120,831,680,608,22,615,711,457,564,727,189,905,781,693,33,726,292,123,6,964,37,685,530,825,849,29,236,836,117,764,790,443,879,240,602,712,310,795,14,188,777,951,88,202,827,409,515,399,154,752,460,918,304,425,434,774,428,621,10,828,110,776,557,839,696,589,99,339,599,12,436,17,268,810,481,471,81,326,494,770,410,658,848,525,766,959,713,355,710,309,900,567,316,160,361,398,388,149,245,130,597,611,448,759,596,520,429,986,41,480,976,464,413,537,135,177,702,613,645,90,506,170,667,586,832,463,994,128,995,77,83,716,899,535,582,133,225,692,843,733,16,817,799,465,739,221,87,294,856,927,747,821,663,554,93,585,69,163,580,140,545,797,999,603,411,86,929,867,362,427,873,565,785,395,432,590,771,791,628,654,970,983,68,682,143,281,699,442,809,201,307,299,896,190,229,334,30,665,38,925,894,161,31,618,301,750,721,338,64,107,34,208,892,250,773,340,605,261,698,792,402,601,544,943,909,858,217,978,587,173,119,845,637,156,435,648,65,290,254,592,593,846,524,300,331,400,150,306,71,620,327,527,112,610,152,450,122,653,345,467,462,911,375,408,380,394,155,447,981,470,655,947,953,141,908,851,704,893,824,732,297,393,705,114,315,541,913,67,949,317,880,552,335,798,295,49,651,343,157,840,415,346,275,403,376,52,804,198,624,922,649,264,291,180,116,484,735,439,210,57,551,349,920,808,902,378,145,391,691,241,960,743,670,546,516,132,906,657,48,884,948,279,54,426,954,172,72,418,869,543,412,806,938,200,341,924,357,723,94,168,898,274,108,630,171,151,218,863,381,43,238,187,162,677,617,181,842,459,634,689,414,779,538,485,231,96,228,982,267,844,614,495,126,296,758,466,283,933,673,633,878,159,553,322,56,232,389,196,224,237,579,509,916,420,760,92,668,433,369,321,24,106,850,724,536,513,207,23,548,570,286,518,417,742,312,988,239,259,354,404,600,111,98,13,383,639,765,847,441,416,276,754,477,311,263,125,965,946,921,492,819,861,941,44,748,919,472,431,786,738,258,390,211,757,385,532,768,186,165,61,476,193,641,812,907,493,550,547,984,966,969,729,308,903,219,787,703,534,650,853,382,656,539,40,886,870,220,686,101,195,422,678,681,105,424,829,890,185,623,475,421,329,352,671,800,914,370,895,325,270,272,769,561,555,386,572,136,607,499,638,562,526,430,46,736,371,320,134,204,144,805,595,2,243,642,876,573,374,904,364,367,62,73,594,456,347,118,313,931,697,928,282,578,392,833,864,351,5,247,588,91,512,700,365,363,332,955,857,652,138,569,708,901,348,199,497,20,36,936,379,0,782,8,158,865,707,319,891,519,975,28,794,288,206,974,366,423,606,289,584,330,461,923,717,996,184,89,640,85,384,581,868,278,103,350,102,937,169,205,142,883,454,802,753,714,372,626,514,968,146,866,789,60,486,958,826,255,179,935,113,444,859,522,63,407,855,793,609,761,212,694,972,74,563,720,820,860,488,510,741,47,560,818,957,772,897,823,940,722,496,540,511,59,644,226,659,661,469,131,690,912,137,813,234,862,249,977,437,622,182,479,104,27,575,980,683,993,731,387,216,124,807,725,877,997,209,490,838,888,740,523,97,533,508,521,449,676,636,500,822,453,961,175,950,15,778,566,780,992,344,298,303,18,491,405,872,619,990,337,926,489,468,962,971,222,80,39,482,473,353,260,679,419,604,314,153,784,559,991,35,51,834,549,438,915,841,58,885,356,684,446,854,932,452,458,528,84,952,70,568,76,397,121,749,632,934,109,129,360,45,487,11,336,583,695,875,930,917,767,755,79,324,285,358,666,715,176,377,246,215,269,302,287,284,501,53,50,662,529,280,235,166,660,574,95,273,248,718,558,830,728,664,507,401,498,591,944,616,139,763,531,517,451,989,502,396,796,816,631,646,223,874,440,835,503,756,242,194,82,271]","arrowright","","true","0","10","183","1000","[""0032_N1000_K0183_NOCLIQUE"",""0071_N1000_K0183_CLIQUE""]"
"","","","","","audio-keyboard-response","68","255505","0.0-58.0-0.0-1.0","","null","audio_feedback/right/coin01.mp3","null","","","","","0","10","183","1000","[""0032_N1000_K0183_NOCLIQUE"",""0071_N1000_K0183_CLIQUE""]"
"","","","","","canvas-keyboard-response","69","259221","0.0-59.0-0.0-0.0","","851","","arrowright","[120,846,401,140,759,985,856,989,748,737,157,10,957,888,240,52,806,549,763,183,153,199,653,193,693,973,71,671,265,764,436,81,751,491,92,98,727,269,915,182,41,345,462,556,949,645,617,522,791,843,684,103,988,780,434,68,976,415,965,838,849,974,943,948,97,432,940,875,148,277,876,105,789,250,528,579,35,253,595,368,590,263,476,551,720,820,72,956,283,987,929,571,50,271,152,310,360,735,416,733,488,184,568,420,583,204,166,487,216,673,226,542,612,738,87,85,461,667,156,49,848,986,198,623,174,459,291,296,418,998,319,633,543,334,572,480,960,424,492,287,533,523,534,951,850,299,380,656,381,69,439,212,30,990,664,589,31,341,123,512,640,827,525,64,840,540,407,495,670,53,2,903,242,362,181,851,138,968,608,641,786,465,155,440,413,130,977,700,805,774,696,259,5,550,768,478,682,423,706,340,722,666,750,217,108,333,40,863,366,527,175,505,650,596,428,871,710,681,51,446,500,114,837,659,306,133,901,77,410,557,878,293,286,714,535,188,947,996,268,141,429,316,458,258,191,536,734,624,708,323,167,493,845,669,300,367,162,126,190,486,221,337,297,558,615,561,704,628,920,858,477,405,279,829,348,605,886,301,857,625,197,815,874,327,654,679,810,869,853,34,539,692,514,575,630,403,132,675,581,245,699,553,82,356,447,953,967,891,233,772,975,129,160,959,278,893,343,703,899,25,249,813,567,9,622,580,317,877,796,321,924,865,443,104,171,852,655,302,336,776,629,24,220,621,594,799,324,315,932,378,332,43,545,412,600,248,307,546,775,441,870,276,95,21,280,17,707,783,728,743,555,339,61,83,513,718,695,454,882,457,762,761,978,137,563,844,955,867,54,980,909,736,314,437,904,39,993,136,442,668,444,798,347,118,814,935,463,620,660,938,520,652,697,267,892,881,678,479,363,547,170,456,350,303,124,835,467,756,60,833,67,16,694,451,234,689,933,275,745,58,680,195,808,969,292,788,178,431,63,816,691,435,62,165,803,715,862,427,958,566,979,508,541,801,683,260,781,794,847,651,802,821,238,999,227,894,618,364,946,860,229,897,425,632,912,211,208,151,146,469,498,262,515,400,665,358,231,304,825,518,677,111,247,914,131,389,206,320,941,643,657,830,961,921,930,755,529,430,289,311,125,185,661,779,506,203,517,23,569,585,931,419,887,945,588,883,984,471,80,359,397,730,4,489,135,619,685,785,972,386,452,766,13,602,382,521,472,482,649,662,896,770,172,950,879,409,106,346,923,937,422,168,963,554,207,842,717,672,79,793,982,59,962,369,464,438,149,530,484,353,107,18,866,719,127,284,823,219,916,370,739,966,22,331,777,765,421,499,936,177,406,744,854,91,391,388,647,236,880,385,497,709,711,328,634,449,93,163,408,606,740,44,159,818,604,732,778,38,254,474,255,687,455,614,342,485,288,19,610,12,371,635,150,20,807,48,698,147,642,365,110,374,831,73,308,466,592,355,335,264,42,290,209,119,109,448,919,638,729,55,354,330,121,180,800,503,494,214,8,601,713,176,473,273,239,325,922,357,702,272,964,194,392,663,282,859,524,404,817,637,99,582,468,372,37,676,942,749,826,338,256,387,201,725,686,898,795,411,927,787,593,322,639,281,746,712,101,548,33,383,648,94,270,379,564,752,790,11,741,855,900,906,36,445,14,47,266,89,223,84,144,519,169,716,970,200,884,56,913,828,797,218,205,490,705,27,577,811,907,261,767,196,399,225,298,318,117,918,578,361,161,864,470,690,398,753,390,395,113,222,782,483,384,839,235,143,573,646,565,115,872,142,112,824,885,329,186,228,230,453,29,591,1,531,784,747,983,90,274,145,241,189,511,164,75,868,504,502,352,552,66,344,570,475,952,351,889,890,88,102,313,603,0,688,373,100,926,832,758,295,7,78,771,450,538,607,616,908,501,173,122,627,510,526,599,911,994,674,598,597,997,613,834,559,902,192,991,309,46,232,873,252,804,562,792,202,609,971,954,393,611,701,895,509,246,376,6,917,731,532,213,417,910,96,742,754,587,134,934,626,584,154,981,992,537,433,26,481,251,658,822,396,721,305,32,861,74,928,812,394,644,576,237,28,128,215,819,210,349,15,326,377,631,76,158,560,257,243,414,944,57,65,3,836,841,285,636,757,809,760,516,179,769,507,724,70,925,244,116,496,187,402,574,586,995,86,139,426,773,460,939,224,294,723,312,375,45,544,905,726]","arrowright","","true","0","11","183","1000","[""0062_N1000_K0183_NOCLIQUE"",""0053_N1000_K0183_CLIQUE""]"
"","","","","","audio-keyboard-response","70","260226","0.0-59.0-0.0-1.0","","null","audio_feedback/right/coin01.mp3","null","","","","","0","11","183","1000","[""0062_N1000_K0183_NOCLIQUE"",""0053_N1000_K0183_CLIQUE""]"
"","","","","","canvas-keyboard-response","71","264182","0.0-60.0-0.0-0.0","","1096","","arrowleft","[932,11,939,626,765,690,117,754,165,535,720,309,177,927,514,562,411,149,356,655,881,768,703,508,649,540,591,504,417,492,21,756,410,322,792,253,784,155,676,488,937,477,73,475,354,909,8,605,252,385,342,532,101,999,64,187,254,762,820,739,651,125,282,858,379,899,817,312,830,126,675,480,142,871,737,267,741,782,341,823,977,571,440,964,43,228,388,105,290,760,299,744,487,146,701,924,330,523,966,402,598,46,343,855,357,905,665,136,53,135,395,129,373,780,186,298,197,609,167,902,543,764,994,481,7,996,407,378,921,61,127,238,172,897,269,650,599,645,451,256,712,901,757,259,721,173,815,816,617,763,323,892,406,273,779,618,788,624,301,638,724,594,482,722,958,344,640,981,862,636,569,923,872,286,930,23,314,448,838,512,84,795,775,610,991,628,915,656,49,857,699,391,347,436,629,850,684,718,814,423,1,890,918,542,242,667,239,192,922,646,450,225,499,971,621,771,968,362,464,294,573,904,714,875,222,706,934,547,318,634,3,183,778,350,122,578,552,983,574,131,277,168,873,263,345,564,730,220,447,611,978,735,302,58,428,748,130,580,505,894,949,430,179,668,972,439,955,66,209,27,363,387,85,717,306,600,990,371,315,589,199,380,658,246,833,203,911,681,68,153,300,845,715,206,29,169,486,230,787,2,759,329,337,196,321,234,698,989,76,709,154,916,946,243,900,914,995,723,218,585,489,4,71,943,372,697,435,310,623,774,382,822,959,161,848,40,689,241,662,30,863,47,472,694,141,708,685,471,931,945,570,761,558,202,887,510,432,842,786,118,434,275,674,111,6,631,212,5,325,860,98,422,716,969,851,223,555,157,9,530,100,614,906,424,917,190,107,602,94,70,557,377,987,348,980,772,15,770,360,44,333,910,973,846,800,33,500,389,767,888,837,60,803,416,707,840,661,207,493,793,606,134,80,597,191,660,807,791,653,456,452,998,507,96,213,572,563,678,527,114,953,612,497,593,462,281,818,495,687,16,319,162,427,539,666,442,274,827,77,443,682,181,884,652,797,249,25,392,132,874,729,501,630,145,686,886,103,99,544,933,51,201,92,123,446,414,78,224,54,72,415,237,836,979,950,393,632,639,769,401,986,383,226,158,12,469,843,463,494,960,399,588,75,65,988,877,276,133,903,210,56,515,418,963,997,794,825,108,590,81,264,683,240,693,929,119,608,28,619,195,789,503,648,26,42,654,985,841,893,993,849,336,403,502,349,506,97,359,688,35,889,352,163,705,204,880,878,861,982,531,740,159,663,311,710,615,575,34,368,339,297,151,866,182,219,992,89,121,659,200,211,280,586,832,474,185,920,375,752,485,338,622,39,812,271,928,478,285,137,957,479,713,268,332,738,755,944,431,143,962,455,110,672,398,587,115,647,728,194,170,657,810,496,538,633,844,534,0,396,826,896,79,567,284,947,305,258,526,895,233,82,885,559,144,109,776,785,736,583,381,961,394,808,283,458,236,859,384,518,669,171,62,324,244,425,561,116,120,261,581,577,637,732,293,95,57,262,952,869,802,124,664,31,32,970,69,304,831,113,620,566,821,691,340,272,625,941,528,746,853,251,671,353,106,777,725,419,421,891,404,702,975,616,801,36,517,584,313,635,307,148,320,140,940,83,93,426,164,565,138,882,166,59,811,984,248,516,216,806,677,522,804,413,511,303,641,14,592,279,546,189,17,104,766,45,37,936,327,604,112,86,974,386,847,214,466,221,781,67,520,704,328,790,783,627,773,747,908,152,509,550,834,412,317,876,468,870,87,798,198,879,367,208,296,461,956,745,867,476,673,457,753,819,369,644,247,473,484,954,742,41,433,805,692,948,576,365,942,856,865,525,156,405,147,613,335,374,864,519,642,839,491,470,459,55,90,582,467,366,595,334,128,235,829,733,545,460,453,560,13,409,260,358,205,548,727,976,291,355,750,376,178,38,695,835,680,465,537,670,696,295,852,250,176,217,50,868,726,951,751,91,420,926,579,74,63,799,524,498,449,188,454,231,139,541,180,898,400,719,967,601,935,370,265,257,607,551,288,390,734,554,549,828,483,245,20,568,266,18,553,361,854,796,749,52,533,215,316,150,326,19,919,229,102,445,883,232,912,438,700,24,441,10,364,965,490,758,184,743,809,556,536,408,603,711,278,938,679,925,160,48,813,193,429,521,529,174,88,731,227,444,255,397,331,351,270,824,346,907,513,643,308,292,913,287,596,175,437,22,289]","arrowleft","","true","0","12","167","1000","[""0076_N1000_K0167_CLIQUE"",""0076_N1000_K0167_NOCLIQUE""]"
"","","","","","audio-keyboard-response","72","265186","0.0-60.0-0.0-1.0","","null","audio_feedback/right/coin01.mp3","null","","","","","0","12","167","1000","[""0076_N1000_K0167_CLIQUE"",""0076_N1000_K0167_NOCLIQUE""]"
"","","","","","canvas-keyboard-response","73","268951","0.0-61.0-0.0-0.0","","822","","arrowleft","[767,860,81,777,536,901,892,688,631,637,555,235,131,539,280,951,741,543,976,674,757,491,839,522,876,957,171,994,420,511,347,520,784,978,621,850,156,488,11,899,528,487,300,614,206,271,266,669,366,306,633,969,229,856,986,765,826,350,646,888,107,894,729,968,995,249,874,391,40,481,132,645,409,458,948,742,166,239,651,616,534,342,73,287,346,195,525,863,157,70,983,386,964,437,436,530,610,272,216,495,254,946,929,719,377,955,588,924,4,920,120,686,291,838,928,592,301,454,524,553,806,676,870,149,779,21,786,947,635,402,114,292,98,827,843,86,397,921,304,697,938,689,175,119,681,259,971,219,14,725,456,308,617,467,889,608,375,793,251,393,250,58,199,683,358,289,987,656,159,875,77,283,67,110,325,165,489,187,412,802,74,864,376,973,124,484,335,128,32,612,311,498,278,846,293,701,545,990,776,367,139,824,186,664,710,426,704,313,158,138,194,44,503,181,853,431,170,232,80,981,868,761,41,755,101,738,90,666,702,227,315,819,164,912,2,730,255,887,91,716,438,224,182,96,732,92,303,115,151,554,173,449,571,140,696,613,513,680,222,933,606,352,19,823,428,906,759,932,603,538,996,66,455,895,154,629,48,417,566,564,336,460,172,243,202,45,390,919,885,970,665,644,739,650,478,493,632,529,452,974,828,33,441,464,446,703,87,473,812,177,960,64,381,639,57,435,160,881,88,647,401,611,977,288,844,540,268,726,557,594,836,326,319,789,967,184,910,337,717,0,972,118,577,563,174,852,662,399,667,68,204,75,238,698,385,403,963,958,468,387,379,747,109,517,711,896,168,634,145,599,900,712,723,733,648,269,231,684,121,477,25,721,643,53,406,260,624,416,247,930,162,663,578,991,329,418,880,6,447,144,462,261,365,569,748,560,422,282,290,474,62,659,237,433,859,323,822,296,368,143,791,672,593,407,56,169,76,808,405,228,841,475,550,265,370,768,415,845,649,353,442,398,129,572,470,38,318,573,483,857,507,849,72,813,94,985,595,188,642,576,567,679,931,37,135,749,801,295,781,835,51,112,815,427,506,736,640,141,878,396,374,316,918,620,17,31,203,772,414,661,134,799,945,394,258,700,505,126,332,568,276,330,993,103,615,805,575,872,113,225,351,858,84,893,193,693,490,795,82,61,1,499,705,457,42,574,605,766,778,695,469,18,408,196,54,803,625,482,737,988,500,854,619,622,440,230,205,943,535,190,211,425,465,533,754,9,508,100,950,687,518,834,378,867,833,189,551,775,404,516,884,373,877,361,486,79,338,722,466,590,208,71,787,636,753,848,496,942,982,897,220,714,501,504,800,771,221,241,388,769,127,692,542,926,363,85,764,782,479,515,105,123,602,740,997,185,78,727,944,179,628,39,142,715,277,728,372,979,24,559,565,917,626,758,830,855,16,596,26,916,886,891,245,583,914,150,198,903,792,718,340,690,410,691,215,780,509,708,270,163,811,252,941,443,641,980,923,675,913,354,430,905,392,218,521,607,480,821,570,745,589,890,364,200,763,348,531,450,851,444,147,847,50,954,55,961,263,46,618,927,411,274,746,861,743,556,580,451,89,670,544,549,305,627,201,582,69,104,328,584,908,485,20,299,210,307,816,832,191,312,653,915,152,790,345,102,461,735,562,937,320,178,322,384,866,752,638,236,657,10,817,362,434,8,321,439,297,133,155,911,125,783,448,52,23,744,334,59,108,122,146,862,472,519,548,883,907,28,934,707,294,762,275,796,713,904,15,952,183,279,463,192,609,655,770,256,597,510,798,95,234,677,818,925,939,209,343,999,502,476,389,962,523,935,966,22,654,344,682,459,807,106,130,13,281,93,233,706,357,512,349,537,965,652,623,36,831,699,604,309,494,285,242,956,879,298,630,331,12,35,840,223,453,116,785,527,794,356,600,694,873,526,882,246,262,49,423,137,774,898,586,83,673,532,902,541,244,756,214,310,383,43,424,660,382,842,60,959,339,248,804,750,869,992,34,273,871,975,161,814,99,940,97,148,432,546,598,65,400,837,359,197,989,922,734,180,552,47,212,111,579,751,341,217,809,324,825,998,333,284,984,829,797,327,936,587,720,264,581,5,371,949,678,773,445,731,257,760,226,471,380,658,27,865,497,30,213,240,153,820,561,810,395,7,267,724,668,302,317,419,514,709,314,685,253,136,492,176,421,953,369,909,671,591,429,117,355,558,29,286,547,360,788,167,585,413,207,63,601,3]","arrowleft","","true","0","13","167","1000","[""0050_N1000_K0167_CLIQUE"",""0079_N1000_K0167_NOCLIQUE""]"
"","","","","","audio-keyboard-response","74","269945","0.0-61.0-0.0-1.0","","null","audio_feedback/right/coin01.mp3","null","","","","","0","13","167","1000","[""0050_N1000_K0167_CLIQUE"",""0079_N1000_K0167_NOCLIQUE""]"
"","","","","","canvas-keyboard-response","75","273712","0.0-62.0-0.0-0.0","","1068","","arrowright","[515,20,739,351,961,418,628,404,497,982,852,380,21,511,288,16,824,208,528,829,991,309,804,203,988,657,328,410,967,473,503,790,257,466,25,531,54,360,789,192,322,499,132,908,10,356,617,8,125,84,12,806,99,760,243,479,823,29,141,150,81,400,976,845,785,781,157,872,643,883,753,117,490,340,98,802,922,962,500,977,927,834,820,382,496,862,273,106,544,241,131,113,953,353,707,858,429,387,457,929,38,653,611,996,672,821,423,304,995,723,97,76,984,854,121,480,634,805,776,284,339,156,207,145,456,659,327,441,957,833,266,674,633,945,197,451,128,315,627,124,585,354,784,817,229,51,732,164,555,788,563,494,798,55,955,391,604,33,424,803,614,696,448,679,153,355,713,502,120,994,36,122,708,902,291,378,385,482,724,797,282,787,27,18,920,53,341,529,189,618,170,613,432,729,812,47,773,460,849,359,446,331,926,728,539,752,758,483,754,45,948,547,570,200,1,835,975,506,233,541,251,162,861,411,159,70,444,844,771,882,317,485,31,619,358,793,58,537,808,553,965,127,221,458,205,269,283,116,366,211,234,264,402,383,741,430,484,252,462,433,662,206,636,914,202,832,655,416,470,615,217,447,919,998,517,59,312,453,843,298,712,545,73,740,794,933,102,800,780,748,867,705,695,510,136,301,938,761,181,180,690,46,232,870,119,210,699,262,118,421,261,622,980,937,334,584,692,394,591,56,478,60,827,688,958,103,242,685,52,597,290,966,463,108,299,349,839,231,684,109,486,286,438,425,606,918,623,137,509,57,588,307,311,11,152,135,819,552,950,213,924,992,403,369,373,601,715,95,885,330,711,30,184,24,310,405,224,891,770,254,972,616,880,915,759,258,589,111,873,292,389,899,414,986,868,564,384,475,838,580,188,401,932,876,735,608,562,855,374,904,230,393,293,256,427,409,321,859,212,973,63,347,974,654,939,889,148,476,93,508,678,343,524,600,101,766,318,764,49,185,574,516,280,549,346,520,942,491,417,964,85,78,171,342,259,576,951,146,969,487,993,586,777,718,96,167,5,168,736,454,857,493,525,505,730,412,239,710,538,774,701,968,209,281,126,893,578,440,911,569,247,50,668,204,523,2,372,913,865,717,138,864,558,810,104,644,698,420,836,931,751,566,151,573,274,811,268,240,866,193,626,792,895,445,910,0,565,691,362,738,165,609,365,912,887,642,527,599,575,651,734,226,749,592,952,595,676,87,44,999,83,631,652,905,946,105,916,392,297,947,896,34,186,437,543,375,877,86,726,39,395,461,390,816,147,214,582,533,670,826,191,32,693,169,807,265,898,594,396,442,647,348,846,471,144,62,474,702,238,638,719,305,163,326,762,397,681,376,110,756,875,921,42,308,954,465,377,577,813,469,890,874,419,28,888,72,830,333,603,439,660,621,561,869,160,61,831,560,235,216,467,666,765,398,903,436,930,925,667,757,48,345,434,884,245,554,332,406,548,495,809,917,408,815,6,837,894,936,279,26,799,41,415,314,901,775,223,17,194,568,686,675,89,763,727,941,237,468,514,768,504,841,361,130,325,923,706,68,892,682,452,900,66,287,443,663,949,161,248,338,750,295,218,75,801,700,92,271,215,323,472,79,13,88,15,791,944,35,431,183,997,337,714,550,526,450,646,897,814,296,244,755,534,956,178,572,263,851,656,477,253,320,306,828,596,449,934,530,559,720,661,275,336,329,267,518,350,176,489,598,629,71,733,742,187,272,285,270,677,822,709,276,324,236,140,590,43,557,778,198,220,455,602,294,196,182,260,782,422,19,498,386,612,413,303,172,335,632,80,848,67,532,607,37,981,64,370,721,364,199,624,669,747,82,648,300,512,133,731,435,190,907,665,179,767,796,879,134,722,546,567,641,860,737,313,22,625,680,987,881,940,989,990,687,100,368,842,174,379,289,583,23,645,255,158,970,69,250,746,246,7,983,943,316,492,635,658,501,640,779,535,381,847,227,716,744,77,3,786,630,906,114,959,886,795,556,581,840,649,536,928,971,142,249,671,278,769,610,91,521,979,683,302,4,94,725,9,40,155,115,488,459,551,139,166,74,772,650,745,225,175,513,363,863,426,637,173,664,704,107,228,371,909,464,357,856,388,825,587,149,154,123,277,871,571,352,783,542,14,960,697,201,367,579,519,219,65,963,112,143,850,507,818,853,222,522,344,540,694,985,639,743,605,703,407,481,90,319,129,428,978,935,673,177,878,689,195,593,620,399]","arrowright","","true","0","14","150","1000","[""0098_N1000_K0150_NOCLIQUE"",""0055_N1000_K0150_CLIQUE""]"
"","","","","","audio-keyboard-response","76","274705","0.0-62.0-0.0-1.0","","null","audio_feedback/right/coin01.mp3","null","","","","","0","14","150","1000","[""0098_N1000_K0150_NOCLIQUE"",""0055_N1000_K0150_CLIQUE""]"
"","","","","","canvas-keyboard-response","77","278531","0.0-63.0-0.0-0.0","","1050",""," ","[833,701,13,762,493,563,779,410,460,300,730,311,619,554,337,8,245,349,65,710,144,788,553,542,810,394,935,883,576,993,118,780,375,417,922,861,840,625,93,532,694,534,571,219,770,117,578,612,271,282,884,525,991,904,306,877,110,393,958,374,273,74,771,224,848,709,476,536,121,518,806,708,188,984,370,363,23,482,397,629,275,529,901,516,628,364,486,369,891,541,185,885,194,150,698,936,615,236,531,223,42,414,463,471,680,217,976,213,288,876,665,555,387,207,309,32,199,272,767,17,126,654,98,416,274,196,184,714,765,435,229,845,560,558,896,740,905,187,761,671,607,852,292,725,96,398,114,627,614,624,54,99,20,218,161,670,125,57,766,165,527,386,696,685,503,19,499,474,660,447,978,252,35,751,216,467,675,830,191,38,18,920,718,809,168,863,953,763,77,633,261,792,566,431,351,322,473,945,37,727,942,961,444,356,589,141,533,257,801,793,220,753,818,586,906,1,312,940,350,562,912,221,613,717,757,178,228,318,157,664,330,348,377,88,588,515,353,911,496,241,616,90,573,524,249,828,147,459,644,399,772,874,815,642,174,329,842,490,384,890,478,551,688,543,556,112,380,80,40,585,734,608,706,954,508,561,519,179,441,692,36,747,783,465,673,6,333,755,910,816,836,593,839,2,237,988,21,987,756,243,949,489,423,663,895,552,886,856,401,175,849,235,569,56,455,931,438,994,7,605,902,825,391,813,145,785,129,538,316,584,703,396,246,929,200,320,572,869,797,72,202,794,149,238,331,581,193,395,574,689,342,928,523,739,598,731,334,305,186,743,946,109,822,672,49,62,498,504,851,969,319,259,124,711,14,345,967,723,484,803,155,501,70,494,857,750,982,61,47,183,968,858,256,450,678,853,479,893,201,192,846,691,787,308,939,89,276,599,795,790,443,655,651,768,632,880,620,879,522,323,388,867,971,162,324,113,667,171,92,618,142,917,405,277,990,133,281,648,244,402,638,451,923,310,44,636,952,383,752,956,268,346,104,424,871,764,205,749,729,617,385,452,742,434,295,475,834,339,705,304,878,829,824,821,55,30,119,440,887,156,485,437,918,290,973,164,227,332,22,406,231,831,487,567,269,964,45,491,514,123,413,521,695,909,728,546,247,425,506,136,592,429,925,293,659,204,897,908,462,411,314,159,371,264,564,140,116,103,804,773,796,669,426,152,965,937,222,448,210,737,547,24,512,900,841,420,361,87,591,34,253,101,266,0,354,412,26,365,294,872,251,446,4,716,733,111,67,206,590,970,418,456,60,513,998,712,992,352,700,343,82,433,568,341,392,819,15,661,442,280,242,778,682,934,115,609,5,169,812,722,27,9,980,359,677,776,932,577,75,12,549,679,746,226,284,180,927,548,29,170,127,291,336,844,239,962,786,389,862,260,367,428,327,736,933,881,530,811,537,326,71,535,211,41,754,172,643,715,176,58,492,33,594,597,230,520,502,378,265,449,95,697,372,107,130,732,258,91,303,248,686,683,203,135,621,944,539,859,415,559,889,59,163,298,335,892,468,596,69,289,724,469,190,368,606,674,340,263,919,160,286,106,898,344,690,915,570,283,974,445,296,526,865,454,832,997,302,626,726,951,926,376,955,960,287,802,640,25,814,995,81,472,390,52,436,68,977,666,800,769,66,843,234,719,153,637,166,989,483,899,759,270,775,154,855,102,317,10,347,745,182,963,138,860,373,297,139,646,307,430,799,108,847,979,791,595,267,575,938,407,579,466,702,913,85,495,888,741,850,656,28,63,403,684,382,948,807,704,132,94,662,419,84,817,649,458,212,214,313,854,868,151,321,46,838,73,894,580,189,699,528,720,835,379,362,653,198,866,128,505,83,681,254,497,158,983,999,959,582,381,481,798,50,966,981,603,820,78,439,315,470,134,255,735,565,279,457,409,601,233,947,43,143,480,146,357,51,583,914,623,225,427,630,873,611,777,823,232,453,507,550,713,120,517,921,404,950,325,784,358,782,707,53,208,355,781,639,610,16,540,509,738,240,278,432,641,634,64,545,285,421,744,668,262,907,209,131,985,366,195,996,916,687,79,97,837,100,48,986,122,808,652,650,400,875,86,557,870,647,464,360,721,972,11,658,544,864,422,903,197,826,76,604,408,631,299,602,328,215,924,758,105,477,760,645,657,748,882,167,511,177,173,39,676,181,930,31,693,510,827,941,600,789,587,461,774,635,622,500,957,3,137,943,975,301,488,250,805,338,148]","arrowleft","","","0","15","150","1000","[""0039_N1000_K0150_CLIQUE"",""0090_N1000_K0150_NOCLIQUE""]"
"","","","","","audio-keyboard-response","78","279645","0.0-63.0-0.0-1.0","","null","audio_feedback/shuffles/shuffle01.mp3","null","","","","","0","15","150","1000","[""0039_N1000_K0150_CLIQUE"",""0090_N1000_K0150_NOCLIQUE""]"
"","","","","","canvas-keyboard-response","79","282630","0.0-63.1-0.1-0.1","","218",""," ","[180,367,981,671,678,411,146,316,17,989,324,29,955,804,838,508,608,95,666,890,801,465,572,541,531,514,334,857,144,473,230,89,174,268,215,37,622,704,248,515,860,786,885,181,129,401,229,574,960,267,23,360,56,369,428,454,163,865,402,542,655,986,715,969,826,103,349,500,565,399,679,306,134,47,287,593,374,191,855,304,859,912,424,310,375,605,529,805,773,389,472,884,878,974,4,377,15,863,198,347,246,158,555,844,81,323,410,237,992,836,34,546,471,673,382,957,65,58,116,238,209,126,931,415,60,752,117,13,745,432,162,892,547,741,147,841,227,352,682,279,853,837,727,977,607,521,104,82,714,379,601,654,933,487,664,524,140,378,130,16,361,564,80,683,194,372,7,660,637,738,896,503,675,444,235,33,26,406,442,641,337,341,315,528,994,412,967,482,893,213,35,656,633,763,149,195,423,526,102,338,274,332,425,190,96,407,947,556,59,868,843,897,62,631,241,356,124,519,979,991,950,456,552,975,125,582,827,652,243,602,914,717,883,381,888,68,318,821,707,421,256,581,330,899,438,776,493,573,800,882,586,290,659,397,380,940,532,625,291,737,206,932,983,331,681,430,112,1,11,965,177,701,623,746,276,913,700,762,498,494,866,851,634,139,527,750,822,839,856,854,845,674,448,368,811,135,759,889,150,27,774,768,98,350,431,954,923,224,560,408,88,898,554,566,262,446,480,558,772,686,485,449,249,658,445,781,864,676,231,721,751,808,463,10,461,758,925,67,653,639,254,370,143,568,872,530,873,961,600,788,930,192,288,901,307,240,616,966,396,917,440,535,476,761,426,49,576,450,486,416,357,278,437,943,164,611,609,320,222,812,327,73,689,141,489,208,832,748,362,250,259,53,228,30,996,358,114,186,903,400,621,820,309,537,749,949,413,657,467,236,584,354,948,475,403,959,993,916,908,39,538,94,166,739,708,921,393,545,483,536,978,61,523,595,850,138,223,202,160,642,835,712,879,78,627,477,787,6,596,75,505,284,817,722,571,388,234,877,183,936,204,90,941,31,952,570,703,273,840,214,459,79,286,189,795,512,661,819,672,823,157,871,20,691,69,651,77,567,199,649,816,720,118,260,734,219,575,185,169,32,918,962,264,165,311,92,455,258,18,869,694,184,478,699,636,777,302,197,156,282,550,452,121,716,439,510,46,985,159,293,365,693,915,905,468,419,766,43,875,57,577,589,685,522,647,880,321,351,606,203,987,312,172,815,662,168,937,207,719,951,54,333,970,725,939,929,705,790,322,335,543,41,325,261,131,265,355,99,520,2,193,458,732,283,342,533,289,110,269,789,713,336,314,495,580,610,972,167,824,640,711,828,45,70,25,764,457,435,946,87,481,42,506,328,549,509,40,842,373,205,19,592,894,968,852,36,212,91,464,93,645,474,900,668,299,266,239,928,942,210,271,591,796,513,807,497,145,858,313,753,433,710,484,133,395,0,466,295,665,534,371,920,251,569,910,904,726,771,944,553,100,846,44,136,28,300,643,469,297,818,525,551,405,938,934,516,148,418,64,496,517,152,441,585,563,626,810,784,8,182,747,814,906,696,171,629,344,724,63,232,107,270,155,624,775,502,420,359,329,677,50,935,443,557,252,799,72,127,108,387,862,142,216,829,83,598,881,122,976,813,984,782,684,597,698,218,614,391,544,376,434,436,451,590,275,548,579,779,702,561,51,200,802,778,384,833,187,578,756,346,995,151,97,128,849,895,803,999,392,113,667,809,115,429,562,706,797,919,953,743,847,305,922,731,303,504,628,106,690,540,587,630,830,123,111,247,785,729,861,604,997,518,973,767,488,499,292,272,390,38,501,188,22,924,179,740,980,982,617,105,648,84,511,12,867,233,76,958,220,615,891,998,902,447,462,848,225,663,825,296,24,154,793,385,294,718,211,217,221,339,697,109,909,583,14,723,137,926,728,539,613,620,680,492,409,71,245,927,971,3,644,119,638,242,427,887,21,963,85,74,263,196,201,178,618,255,66,153,479,755,9,175,619,709,780,281,363,326,695,404,599,870,687,730,559,340,345,792,669,353,383,386,831,394,806,308,650,173,876,285,736,744,964,760,176,754,86,834,490,635,253,688,280,277,911,417,319,226,301,874,770,769,956,886,646,414,791,670,603,988,52,794,491,632,733,317,161,594,132,798,990,945,460,588,757,692,422,298,612,765,120,55,366,244,907,48,470,507,5,101,257,343,348,170,735,783,364,398,742,453]","arrowleft","","","0","15","150","1000","[""0039_N1000_K0150_CLIQUE"",""0090_N1000_K0150_NOCLIQUE""]"
"","","","","","audio-keyboard-response","80","283706","0.0-63.1-0.1-1.1","","null","audio_feedback/shuffles/shuffle01.mp3","null","","","","","0","15","150","1000","[""0039_N1000_K0150_CLIQUE"",""0090_N1000_K0150_NOCLIQUE""]"
"","","","","","canvas-keyboard-response","81","287292","0.0-63.2-0.2-0.2","","805","","arrowleft","[488,241,922,354,680,193,70,383,128,477,262,886,791,755,902,570,938,294,707,232,188,719,723,992,56,823,751,243,410,8,83,507,617,189,676,0,692,539,937,540,798,316,698,851,589,876,520,529,371,59,846,547,661,565,89,906,231,283,693,981,587,910,945,768,966,15,276,250,603,386,845,223,470,808,905,11,896,426,390,623,969,157,978,328,727,512,527,194,421,809,357,466,787,712,953,480,599,928,151,112,841,67,997,12,697,583,76,590,705,326,765,786,763,63,977,790,201,420,275,959,852,120,359,580,975,482,116,339,175,197,434,136,334,111,833,889,581,216,340,365,30,38,209,631,415,563,185,560,398,88,317,500,285,101,706,577,54,75,214,535,987,641,239,108,211,33,222,486,26,989,58,496,428,739,613,418,36,979,567,242,367,141,632,904,99,713,213,489,441,523,461,670,66,541,544,137,148,95,780,380,754,424,621,980,747,895,758,627,469,260,403,445,37,961,802,411,91,986,43,22,861,807,704,268,731,897,770,154,725,838,985,538,701,277,332,611,642,816,18,296,930,198,746,867,574,186,885,311,92,98,688,606,849,891,504,483,806,866,803,324,24,796,422,372,146,107,392,618,952,614,161,926,965,452,913,690,442,592,170,308,760,251,462,794,457,344,708,117,868,27,302,839,854,745,973,382,522,864,319,21,346,49,215,970,387,61,183,604,301,399,430,558,180,935,908,915,582,810,506,259,858,722,255,375,515,804,536,279,240,757,792,106,449,315,899,327,956,717,168,564,568,159,593,531,467,41,545,502,406,946,898,358,709,124,514,323,39,607,492,263,636,374,993,822,585,689,336,588,437,639,598,322,983,964,31,249,741,143,393,853,288,352,637,943,286,491,459,118,911,7,304,612,648,799,957,526,549,740,133,595,423,860,68,781,950,553,369,546,695,438,559,696,921,594,579,228,295,299,870,166,543,586,345,737,814,569,217,165,571,149,464,389,208,87,184,173,139,378,575,60,74,974,451,132,789,843,376,29,62,35,5,490,936,917,784,801,3,684,55,455,663,368,626,671,292,381,691,912,293,857,102,404,273,247,153,244,349,584,511,800,414,72,257,756,865,685,998,901,887,955,122,683,591,400,224,675,391,702,164,963,724,940,947,967,924,456,855,274,44,471,227,458,821,863,126,472,347,485,764,878,355,160,453,960,150,71,341,384,788,307,562,640,337,718,817,272,920,687,236,573,882,630,446,761,468,206,811,818,877,933,669,397,516,204,96,772,645,408,647,142,42,654,948,80,694,134,179,869,735,48,192,844,50,503,743,4,329,203,396,25,81,600,991,443,609,440,556,246,505,195,649,856,219,572,419,528,775,110,256,551,178,484,888,19,919,769,918,762,176,205,156,874,407,388,460,615,518,674,530,795,850,2,79,45,673,643,135,127,942,10,733,353,245,416,84,350,155,306,620,20,261,152,785,97,984,550,309,402,69,199,715,797,280,659,174,999,448,131,716,726,667,432,890,990,749,119,517,710,962,738,53,601,395,270,450,427,700,660,929,191,826,972,366,429,835,668,121,923,779,995,172,287,825,971,447,859,167,171,720,677,13,264,714,893,596,425,819,499,478,361,941,927,436,815,278,672,892,658,351,652,187,202,269,364,73,252,230,495,894,778,105,548,777,225,782,610,433,47,123,267,234,824,221,147,363,474,298,783,51,158,525,373,281,130,77,342,113,907,883,385,951,40,330,554,320,177,266,476,728,32,85,238,343,412,17,331,679,656,703,233,734,115,28,629,226,218,996,771,875,348,493,879,475,925,721,988,510,253,248,431,836,650,312,145,813,871,914,362,533,16,271,847,644,413,6,405,840,820,509,196,916,602,207,57,258,686,873,776,628,220,976,682,521,561,624,325,237,638,767,498,900,827,377,300,182,837,994,93,94,812,646,473,619,103,465,655,284,903,578,290,931,537,494,310,605,634,144,163,435,52,104,934,832,181,82,305,114,732,479,356,730,653,862,944,968,265,633,100,318,78,766,831,657,169,524,651,982,793,379,616,881,417,566,880,401,742,884,370,9,681,834,254,314,444,235,439,748,409,542,190,711,90,699,555,576,662,622,360,291,759,608,666,750,958,297,872,46,14,848,210,497,487,557,86,773,229,774,109,949,335,200,664,932,481,752,753,64,939,954,534,508,597,212,65,463,532,333,23,303,842,829,625,729,501,519,805,830,635,513,394,552,129,289,665,678,736,125,162,338,321,138,313,140,454,282,909,1,34,828,744]","arrowleft","","true","0","15","150","1000","[""0039_N1000_K0150_CLIQUE"",""0090_N1000_K0150_NOCLIQUE""]"
"","","","","","audio-keyboard-response","82","288285","0.0-63.2-0.2-1.2","","null","audio_feedback/right/coin01.mp3","null","","","","","0","15","150","1000","[""0039_N1000_K0150_CLIQUE"",""0090_N1000_K0150_NOCLIQUE""]"
"","","","","","canvas-keyboard-response","83","292111","0.0-64.0-0.0-0.0","","1012",""," ","[2,134,170,289,305,433,286,315,653,602,616,356,896,331,235,411,897,539,590,976,459,858,409,355,741,190,283,907,93,540,154,549,997,772,39,311,638,594,611,707,678,31,302,178,510,247,656,664,688,888,84,846,32,756,649,372,844,634,748,434,129,486,262,158,62,579,124,230,375,576,905,55,551,671,610,358,645,60,481,776,293,350,301,345,721,342,141,390,132,743,73,739,571,631,524,467,447,458,626,722,890,488,884,908,600,777,702,463,829,57,974,526,796,202,778,578,211,696,986,246,530,413,682,435,665,827,811,330,120,955,387,914,732,825,201,648,659,240,734,443,577,166,279,51,823,617,457,41,85,15,415,657,313,45,522,116,151,687,398,800,787,808,212,5,996,50,684,994,725,747,949,860,675,243,859,906,165,621,427,593,805,156,87,511,444,339,329,379,623,102,308,968,216,182,397,874,686,728,265,100,760,499,389,335,164,338,242,708,819,762,196,460,710,984,690,685,493,109,915,131,79,773,430,208,192,717,231,468,981,327,757,596,694,368,81,205,248,516,237,298,223,982,381,148,314,738,317,555,479,256,641,251,312,497,16,219,854,763,546,187,945,879,601,380,299,856,753,168,508,565,392,181,927,705,441,477,249,922,841,117,143,520,733,19,962,6,538,643,162,188,199,127,377,567,363,552,112,67,496,407,328,871,761,297,442,521,273,245,928,23,957,58,291,934,609,203,637,186,385,250,941,850,956,206,382,882,529,691,95,514,635,349,558,902,155,152,147,66,917,679,809,990,847,490,979,406,171,252,993,509,80,386,98,20,334,14,535,831,720,183,744,533,822,214,106,952,960,817,663,580,887,862,869,801,142,900,287,378,26,423,369,276,595,280,655,568,507,7,52,813,388,257,221,692,929,947,824,613,414,849,711,145,384,880,584,559,698,839,989,464,792,197,550,332,971,599,236,130,799,366,834,999,113,903,101,376,420,431,782,518,625,228,4,401,543,714,8,911,489,144,554,581,689,68,991,318,832,818,735,863,877,307,658,619,940,709,451,666,290,405,146,75,814,416,244,320,872,200,942,677,830,277,764,752,987,767,861,72,432,179,1,939,347,804,222,557,69,393,494,498,269,512,612,3,111,966,65,758,74,704,233,878,920,300,76,9,547,469,226,341,461,727,652,475,324,749,589,439,910,886,138,33,754,566,731,362,729,373,272,585,654,706,519,361,950,891,42,241,975,528,306,771,618,422,284,961,933,582,785,340,660,774,925,452,303,194,174,180,150,346,64,750,104,450,650,448,958,419,90,374,608,700,309,926,404,474,895,13,399,544,482,105,425,629,304,352,229,370,873,107,797,881,820,851,746,367,296,267,793,842,128,963,517,159,274,88,0,96,224,462,402,336,63,885,765,527,322,227,998,523,876,30,736,780,43,453,553,759,169,548,644,953,59,238,790,177,921,525,278,592,683,574,61,806,845,195,768,198,189,403,598,126,615,24,667,855,992,562,788,983,49,133,505,701,636,726,662,175,114,848,204,712,473,27,261,875,436,970,561,149,564,118,207,713,255,193,912,371,470,909,213,140,185,840,646,11,121,412,239,502,742,730,153,321,932,699,110,954,465,680,316,918,627,586,209,603,426,491,775,697,343,786,437,624,560,163,770,483,260,210,167,995,515,215,484,901,34,91,123,916,605,745,892,919,779,852,826,794,395,47,724,218,480,693,843,137,501,784,833,988,969,531,176,838,816,607,161,597,977,798,930,348,288,354,924,865,542,532,12,815,936,29,695,883,868,18,669,718,217,867,122,234,35,295,943,97,53,563,923,575,466,583,681,471,424,948,421,359,36,408,119,857,541,383,364,454,506,54,931,628,972,913,357,789,48,661,980,281,614,365,620,828,173,446,326,391,263,266,344,606,556,77,504,495,821,417,275,400,440,640,783,353,319,108,337,715,537,94,673,807,570,795,40,632,588,864,964,536,651,837,500,172,17,410,157,630,360,472,38,545,946,703,476,674,46,44,835,428,125,184,866,136,103,492,294,10,225,569,56,904,959,740,253,672,899,810,86,394,572,642,89,220,160,270,938,487,333,965,951,889,676,803,587,438,135,254,751,115,37,591,351,639,937,456,870,78,503,25,670,973,812,83,791,622,292,836,802,769,429,967,573,259,633,232,513,323,325,985,449,455,716,396,898,719,534,28,310,478,191,99,285,604,766,22,485,853,723,282,893,894,944,668,271,139,647,755,21,71,264,70,978,92,82,737,258,935,445,418,781,268]","arrowleft","","","0","16","133","1000","[""0001_N1000_K0133_CLIQUE"",""0039_N1000_K0133_NOCLIQUE""]"
"","","","","","audio-keyboard-response","84","293186","0.0-64.0-0.0-1.0","","null","audio_feedback/shuffles/shuffle01.mp3","null","","","","","0","16","133","1000","[""0001_N1000_K0133_CLIQUE"",""0039_N1000_K0133_NOCLIQUE""]"
"","","","","","canvas-keyboard-response","85","297131","0.0-64.1-0.1-0.1","","1045","","arrowleft","[257,252,248,955,83,322,589,173,945,240,834,140,231,911,821,151,445,421,478,348,569,771,988,35,117,763,702,46,180,585,922,508,555,387,26,127,305,874,987,144,883,20,206,150,110,506,800,677,216,86,54,174,21,154,152,212,263,330,138,714,873,133,568,442,99,550,776,693,329,655,726,861,798,78,255,108,87,501,645,323,899,577,816,769,94,29,527,520,932,801,660,123,620,712,842,273,444,465,900,128,590,214,866,2,484,414,926,40,51,558,715,517,845,975,928,218,554,308,643,853,115,318,889,820,58,654,195,95,810,463,70,625,510,187,914,362,658,498,62,217,777,997,869,538,328,717,269,893,859,622,682,313,584,637,37,901,7,618,408,586,565,666,963,321,870,696,52,246,135,244,819,656,978,121,700,954,230,375,689,514,980,850,454,641,626,649,898,253,280,493,239,344,39,434,904,251,352,436,200,309,935,830,902,249,399,743,522,136,629,167,595,265,811,886,919,709,730,519,965,512,725,32,184,885,961,567,109,786,294,376,333,30,368,296,379,793,245,650,505,5,47,639,686,96,529,647,56,497,237,69,491,912,990,701,290,302,61,602,160,409,125,881,4,670,163,405,542,808,256,993,513,392,499,528,274,260,142,504,209,537,877,575,141,667,855,944,450,172,592,836,238,884,415,221,300,613,137,16,731,930,868,784,648,609,339,684,118,449,610,74,380,1,413,502,22,258,824,741,698,578,341,857,482,815,921,411,753,404,431,971,915,492,395,823,758,420,664,219,430,91,803,856,918,695,481,591,453,346,183,876,745,923,204,356,320,627,533,326,3,383,283,250,149,477,828,475,25,101,992,370,429,394,196,631,303,351,396,27,426,970,632,440,969,644,747,524,778,203,523,545,838,931,156,428,189,825,525,662,598,871,416,210,984,601,896,562,983,366,372,603,64,130,732,456,920,552,720,966,937,462,103,561,225,44,437,178,192,182,207,98,503,773,675,623,297,126,630,227,548,950,814,890,398,852,12,894,680,185,879,710,129,48,335,391,479,847,608,933,835,628,494,706,906,541,23,220,531,66,530,466,181,817,232,259,766,633,438,998,266,132,657,576,373,301,875,547,638,24,661,306,345,765,925,860,749,665,854,580,198,551,18,805,385,423,147,419,754,840,795,757,960,57,483,694,355,841,723,844,42,474,697,111,832,480,559,534,319,651,543,270,813,704,235,381,361,365,916,120,386,764,917,936,193,653,779,509,642,427,67,909,31,566,157,119,485,804,360,782,570,205,495,721,748,737,443,241,783,82,762,455,989,68,364,447,81,80,488,470,791,424,752,703,285,867,162,738,599,177,880,929,33,977,713,829,794,521,201,311,441,312,338,50,949,102,116,176,403,325,425,143,448,41,369,947,228,6,459,451,384,171,939,299,28,353,683,17,887,532,781,194,718,913,106,331,496,736,581,410,271,604,112,281,354,895,13,304,307,93,888,574,8,985,837,587,165,76,19,190,234,729,11,891,831,612,851,412,242,390,75,690,406,358,692,908,797,862,719,619,292,236,382,10,334,377,324,952,275,750,486,535,310,71,336,467,268,113,788,134,951,363,464,107,941,254,85,636,673,332,892,288,213,968,934,996,792,97,289,768,691,734,755,14,822,226,827,350,526,388,865,371,685,767,663,705,367,635,272,624,948,739,605,751,903,229,910,63,611,617,400,549,277,740,790,600,572,596,958,849,317,122,261,357,669,347,995,337,146,446,668,809,342,582,279,687,774,515,924,973,564,170,148,905,55,640,597,621,105,780,616,676,422,243,999,161,43,991,49,607,594,327,943,439,907,264,516,953,175,573,962,45,571,460,671,199,155,536,770,432,418,742,722,959,188,469,84,38,818,349,340,518,131,553,733,724,89,544,202,435,760,79,315,735,389,224,583,579,711,158,593,846,789,59,457,728,716,982,374,957,77,476,772,233,489,104,761,646,843,159,471,681,222,164,974,652,397,473,672,139,145,295,858,986,679,556,848,812,359,247,806,53,606,872,540,9,92,946,678,799,878,179,60,972,314,674,864,316,708,262,746,967,211,472,223,785,461,114,511,208,36,614,186,166,401,500,787,298,956,897,282,452,286,759,490,588,882,976,417,699,615,72,560,15,507,88,940,546,468,634,927,0,659,291,278,65,402,215,267,393,90,343,979,197,487,539,744,458,688,964,839,807,775,826,863,707,756,433,802,276,942,124,994,153,981,284,73,557,727,796,407,191,34,293,378,563,100,833,287,169,938,168]","arrowleft","","true","0","16","133","1000","[""0001_N1000_K0133_CLIQUE"",""0039_N1000_K0133_NOCLIQUE""]"
"","","","","","audio-keyboard-response","86","298126","0.0-64.1-0.1-1.1","","null","audio_feedback/right/coin01.mp3","null","","","","","0","16","133","1000","[""0001_N1000_K0133_CLIQUE"",""0039_N1000_K0133_NOCLIQUE""]"
