"success","timeout","failed_images","failed_audio","failed_video","trial_type","trial_index","time_elapsed","internal_node_id","view_history","rt","stimulus","response","nodes_order","correct_response","graphs_couple","accuracy","block_index","presentation_index","clique_size","graph_size","graphs_names"
"true","false","[]","[]","[]","preload","0","27","0.0-0.0","","","","","","","","","","","","",""
"","","","","","pavlovia","1","372","0.0-1.0","","","","","","","","","","","","",""
"","","","","","instructions","2","9607","0.0-2.0","[{""page_index"":0,""viewing_time"":7206},{""page_index"":1,""viewing_time"":2026}]","9233","","","","","","","","","","",""
"true","false","[]","[]","[]","preload","3","9679","0.0-3.0","","","","","","","","","","","","",""
"","","","","","instructions","4","41300","0.0-4.0","[{""page_index"":0,""viewing_time"":594},{""page_index"":1,""viewing_time"":222},{""page_index"":2,""viewing_time"":139},{""page_index"":3,""viewing_time"":151},{""page_index"":4,""viewing_time"":151},{""page_index"":5,""viewing_time"":137},{""page_index"":6,""viewing_time"":150},{""page_index"":7,""viewing_time"":157},{""page_index"":8,""viewing_time"":166},{""page_index"":9,""viewing_time"":160},{""page_index"":10,""viewing_time"":160},{""page_index"":11,""viewing_time"":157},{""page_index"":12,""viewing_time"":149},{""page_index"":13,""viewing_time"":167},{""page_index"":14,""viewing_time"":159},{""page_index"":15,""viewing_time"":176},{""page_index"":16,""viewing_time"":155},{""page_index"":17,""viewing_time"":153},{""page_index"":18,""viewing_time"":154},{""page_index"":19,""viewing_time"":169},{""page_index"":20,""viewing_time"":146},{""page_index"":21,""viewing_time"":213},{""page_index"":22,""viewing_time"":173},{""page_index"":23,""viewing_time"":170},{""page_index"":24,""viewing_time"":187},{""page_index"":25,""viewing_time"":205},{""page_index"":26,""viewing_time"":204},{""page_index"":27,""viewing_time"":256},{""page_index"":28,""viewing_time"":273},{""page_index"":29,""viewing_time"":259},{""page_index"":30,""viewing_time"":274},{""page_index"":31,""viewing_time"":277},{""page_index"":32,""viewing_time"":542},{""page_index"":33,""viewing_time"":796},{""page_index"":34,""viewing_time"":468},{""page_index"":35,""viewing_time"":456},{""page_index"":36,""viewing_time"":296},{""page_index"":37,""viewing_time"":377},{""page_index"":38,""viewing_time"":361},{""page_index"":39,""viewing_time"":581},{""page_index"":40,""viewing_time"":406},{""page_index"":41,""viewing_time"":13913},{""page_index"":42,""viewing_time"":2929},{""page_index"":43,""viewing_time"":429},{""page_index"":44,""viewing_time"":1498},{""page_index"":45,""viewing_time"":724},{""page_index"":46,""viewing_time"":298},{""page_index"":47,""viewing_time"":230},{""page_index"":48,""viewing_time"":205},{""page_index"":49,""viewing_time"":244},{""page_index"":50,""viewing_time"":319},{""page_index"":51,""viewing_time"":288}]","31621","","","","","","","","","","",""
"","","","","","instructions","5","43820","0.0-5.0","[{""page_index"":0,""viewing_time"":2519}]","2520","","","","","","","","","","",""
"true","false","[]","[]","[]","preload","6","43897","0.0-6.0","","","","","","","","","","","","",""
"","","","","","image-keyboard-response","7","46730","0.0-7.0","","2831","tutorial/task_familiarization_images/part 1/01_N160_K90_cliqueRight_question1.PNG"," ","","","","","","","","",""
"","","","","","image-keyboard-response","8","47061","0.0-8.0","","329","tutorial/task_familiarization_images/part 1/02_N160_K90_cliqueRight_question2.PNG"," ","","","","","","","","",""
"","","","","","image-keyboard-response","9","48591","0.0-9.0","","1528","tutorial/task_familiarization_images/part 1/03_N160_K90_cliqueRight_question3.PNG","arrowright","","","","","","","","",""
"","","","","","image-keyboard-response","10","49567","0.0-10.0","","974","tutorial/task_familiarization_images/part 1/04_N160_K90_cliqueRight_solution.PNG"," ","","","","","","","","",""
"","","","","","image-keyboard-response","11","49866","0.0-11.0","","297","tutorial/task_familiarization_images/part 1/05_N160_K65_cliqueRight_question1.PNG"," ","","","","","","","","",""
"","","","","","image-keyboard-response","12","50203","0.0-12.0","","335","tutorial/task_familiarization_images/part 1/06_N160_K65_cliqueRight_question2.PNG"," ","","","","","","","","",""
"","","","","","image-keyboard-response","13","50876","0.0-13.0","","671","tutorial/task_familiarization_images/part 1/07_N160_K65_cliqueRight_question3.PNG","arrowright","","","","","","","","",""
"","","","","","image-keyboard-response","14","51326","0.0-14.0","","448","tutorial/task_familiarization_images/part 1/08_N160_K65_cliqueRight_solution.PNG"," ","","","","","","","","",""
"","","","","","image-keyboard-response","15","51702","0.0-15.0","","374","tutorial/task_familiarization_images/part 1/09_N160_K50_cliqueLeft_question1.PNG"," ","","","","","","","","",""
"","","","","","image-keyboard-response","16","52210","0.0-16.0","","506","tutorial/task_familiarization_images/part 1/10_N160_K50_cliqueLeft_question2.PNG"," ","","","","","","","","",""
"","","","","","image-keyboard-response","17","62797","0.0-17.0","","10585","tutorial/task_familiarization_images/part 1/11_N160_K50_cliqueLeft_question3.PNG","arrowleft","","","","","","","","",""
"","","","","","image-keyboard-response","18","64938","0.0-18.0","","2139","tutorial/task_familiarization_images/part 1/12_N160_K50_cliqueLeft_solution.PNG"," ","","","","","","","","",""
"","","","","","image-keyboard-response","19","66158","0.0-19.0","","1218","tutorial/task_familiarization_images/part 1/13_N160_K80_cliqueLeft_question1.PNG"," ","","","","","","","","",""
"","","","","","image-keyboard-response","20","66522","0.0-20.0","","362","tutorial/task_familiarization_images/part 1/14_N160_K80_cliqueLeft_question2.PNG"," ","","","","","","","","",""
"","","","","","image-keyboard-response","21","67224","0.0-21.0","","700","tutorial/task_familiarization_images/part 1/15_N160_K80_cliqueLeft_question3.PNG","arrowleft","","","","","","","","",""
"","","","","","image-keyboard-response","22","67748","0.0-22.0","","522","tutorial/task_familiarization_images/part 1/16_N160_K80_cliqueLeft_solution.PNG"," ","","","","","","","","",""
"","","","","","image-keyboard-response","23","68593","0.0-23.0","","840","tutorial/task_familiarization_images/part 1/17_N160_K40_cliqueRight_question1.PNG"," ","","","","","","","","",""
"","","","","","image-keyboard-response","24","68977","0.0-24.0","","382","tutorial/task_familiarization_images/part 1/18_N160_K40_cliqueRight_question2.PNG"," ","","","","","","","","",""
"","","","","","image-keyboard-response","25","70155","0.0-25.0","","1176","tutorial/task_familiarization_images/part 1/19_N160_K40_cliqueRight_question3.PNG","arrowright","","","","","","","","",""
"","","","","","image-keyboard-response","26","71703","0.0-26.0","","1547","tutorial/task_familiarization_images/part 1/20_N160_K40_cliqueRight_solution.PNG"," ","","","","","","","","",""
"","","","","","image-keyboard-response","27","72060","0.0-27.0","","355","tutorial/task_familiarization_images/part 1/21_N160_K70_cliqueLeft_question1.PNG"," ","","","","","","","","",""
"","","","","","image-keyboard-response","28","72432","0.0-28.0","","370","tutorial/task_familiarization_images/part 1/22_N160_K70_cliqueLeft_question2.PNG"," ","","","","","","","","",""
"","","","","","image-keyboard-response","29","73258","0.0-29.0","","825","tutorial/task_familiarization_images/part 1/23_N160_K70_cliqueLeft_question3.PNG","arrowleft","","","","","","","","",""
"","","","","","image-keyboard-response","30","73678","0.0-30.0","","418","tutorial/task_familiarization_images/part 1/24_N160_K70_cliqueLeft_solution.PNG"," ","","","","","","","","",""
"true","false","[]","[]","[]","preload","31","73746","0.0-31.0","","","","","","","","","","","","",""
"","","","","","image-keyboard-response","32","76907","0.0-32.0","","3160","tutorial/task_familiarization_images/part 2/01_160_80_cliqueLeft_withFeedback_1.PNG"," ","","","","","","","","",""
"","","","","","image-keyboard-response","33","77334","0.0-33.0","","425","tutorial/task_familiarization_images/part 2/02_160_80_cliqueLeft_withFeedback_1.PNG"," ","","","","","","","","",""
"","","","","","image-keyboard-response","34","79628","0.0-34.0","","2293","tutorial/task_familiarization_images/part 2/03_160_80_cliqueLeft_withFeedback_3.PNG","arrowleft","","","","","","","","",""
"","","","","","image-keyboard-response","35","80684","0.0-35.0","","1053","tutorial/task_familiarization_images/part 2/04_160_80_cliqueLeft_withFeedback_correct.PNG"," ","","","","","","","","",""
"","","","","","image-keyboard-response","36","81105","0.0-36.0","","420","tutorial/task_familiarization_images/part 2/05_160_55_cliqueRight_withFeedback_1.PNG"," ","","","","","","","","",""
"","","","","","image-keyboard-response","37","81346","0.0-37.0","","236","tutorial/task_familiarization_images/part 2/06_160_55_cliqueRight_withFeedback_2.PNG"," ","","","","","","","","",""
"","","","","","image-keyboard-response","38","82327","0.0-38.0","","979","tutorial/task_familiarization_images/part 2/07_160_55_cliqueRight_withFeedback_3.PNG","arrowright","","","","","","","","",""
"","","","","","image-keyboard-response","39","82833","0.0-39.0","","504","tutorial/task_familiarization_images/part 2/08_160_55_cliqueRight_withFeedback_correct.PNG"," ","","","","","","","","",""
"","","","","","image-keyboard-response","40","83193","0.0-40.0","","357","tutorial/task_familiarization_images/part 2/09_160_70_cliqueLeft_withFeedback_1.PNG"," ","","","","","","","","",""
"","","","","","image-keyboard-response","41","83442","0.0-41.0","","248","tutorial/task_familiarization_images/part 2/10_160_70_cliqueLeft_withFeedback_2.PNG"," ","","","","","","","","",""
"","","","","","image-keyboard-response","42","84077","0.0-42.0","","633","tutorial/task_familiarization_images/part 2/11_160_70_cliqueLeft_withFeedback_3.PNG","arrowleft","","","","","","","","",""
"","","","","","image-keyboard-response","43","84356","0.0-43.0","","277","tutorial/task_familiarization_images/part 2/12_160_70_cliqueLeft_withFeedback_correct.PNG"," ","","","","","","","","",""
"","","","","","survey-html-form","44","91189","0.0-44.0","","6830","","{""gender"":""male"",""age"":""27""}","","","","","","","","",""
"","","","","","instructions","45","103625","0.0-45.0","[{""page_index"":0,""viewing_time"":12436}]","12436","","","","","","","","","","",""
"true","","","","","fullscreen","46","107758","0.0-47.0","","","","","","","","","","","","",""
"","","","","","canvas-keyboard-response","47","115616","0.0-48.0-0.0-0.0","","7001","","arrowleft","[865,39,607,37,541,116,826,529,525,573,638,686,499,840,80,482,277,493,630,275,462,494,973,864,279,986,10,699,907,959,979,452,657,256,528,750,91,149,65,670,33,697,271,309,194,800,451,762,456,688,258,178,233,479,718,681,502,20,354,359,133,532,382,806,58,432,268,651,619,883,685,732,861,119,200,366,318,880,285,895,417,335,52,991,809,706,360,754,996,418,267,932,560,897,142,117,950,244,488,45,998,383,771,483,654,916,824,195,653,98,914,956,787,627,862,262,434,863,283,509,892,216,472,743,557,646,392,860,316,223,48,544,931,893,631,600,42,905,466,736,357,694,189,995,179,902,580,673,429,559,788,714,49,909,284,73,95,810,31,399,656,589,121,24,221,329,125,827,643,165,67,751,423,705,767,604,331,561,391,758,421,698,508,337,682,834,913,7,513,29,241,976,431,112,408,543,312,768,677,51,97,808,286,280,667,778,416,533,797,610,147,444,177,766,689,380,77,92,327,655,150,74,674,59,773,465,128,248,16,105,658,942,484,53,876,202,606,291,738,637,412,344,538,270,837,954,794,103,227,519,136,224,595,108,783,534,798,919,791,624,439,838,26,597,683,855,703,648,378,896,319,944,875,980,249,679,929,693,701,339,617,447,903,413,236,84,668,14,985,282,690,415,564,173,813,320,60,298,981,782,845,353,28,206,405,3,776,539,922,503,234,266,772,164,510,362,41,222,565,25,615,371,56,144,585,633,449,803,303,183,641,477,741,269,576,546,490,191,745,124,818,843,15,246,801,307,632,851,527,317,130,567,426,43,586,81,816,704,687,746,424,172,381,556,410,551,22,577,962,542,341,877,85,422,220,639,30,301,974,781,925,302,398,230,977,601,584,110,197,918,87,113,910,89,590,730,847,433,669,140,208,988,844,702,578,198,0,531,912,725,235,388,445,226,749,106,455,874,530,906,949,238,257,823,469,126,964,645,334,812,695,993,430,671,552,856,984,457,346,696,926,4,435,204,960,71,134,957,969,602,102,835,785,468,943,86,253,881,644,662,393,814,884,375,104,620,923,666,966,310,765,802,461,166,158,675,501,450,721,174,242,555,514,448,784,352,306,225,137,368,770,537,17,481,78,790,948,975,820,293,201,138,709,581,333,281,453,240,724,805,611,217,132,420,294,122,141,867,879,114,761,936,937,684,12,521,858,886,272,549,273,463,888,928,373,804,188,734,47,628,536,127,54,614,968,442,978,963,190,774,473,915,908,23,955,522,213,185,599,62,517,290,713,793,239,261,304,729,343,478,396,338,498,716,50,350,777,727,515,558,971,44,547,562,464,796,712,1,720,492,389,348,848,218,830,613,882,934,120,385,361,436,752,370,516,692,652,755,186,587,403,659,395,210,579,139,603,101,155,274,647,811,192,356,397,828,629,278,315,69,250,237,159,921,107,358,832,406,901,446,171,199,100,322,676,526,129,369,300,475,764,154,616,355,592,545,491,109,38,608,2,958,842,64,574,211,523,563,247,873,212,379,642,841,332,474,570,251,131,349,878,852,311,871,822,323,989,476,181,707,328,345,723,930,264,162,299,983,612,819,34,691,831,817,182,187,990,203,175,836,374,486,512,853,265,411,384,504,715,83,245,438,572,769,953,308,168,156,970,260,775,815,184,414,489,176,207,779,495,904,664,13,550,460,99,622,792,733,404,243,933,700,621,289,747,868,605,367,82,626,927,148,497,849,763,507,891,170,997,760,292,376,554,36,351,135,459,640,40,205,854,259,428,885,6,945,93,593,965,363,180,232,708,372,795,161,999,596,591,11,660,634,569,145,789,314,252,480,209,402,193,650,419,61,500,365,485,153,872,753,987,711,737,276,441,740,672,377,68,111,94,123,8,961,169,305,594,347,63,160,582,939,898,324,742,511,390,623,609,719,471,748,152,900,710,890,79,625,57,924,757,588,661,728,857,917,583,553,88,35,722,55,167,839,665,297,994,336,636,899,9,219,571,21,518,157,72,330,400,427,437,566,859,505,935,386,342,947,717,618,825,75,46,726,920,680,27,255,151,295,425,196,440,443,19,870,228,524,866,833,90,143,18,739,759,744,941,780,887,231,407,263,821,731,115,992,540,598,946,394,568,535,894,326,146,951,409,850,401,5,635,911,506,96,496,454,846,313,799,649,735,889,364,470,163,214,869,786,548,325,967,520,254,321,952,575,938,118,458,66,76,387,829,215,340,940,32,972,487,467,287,678,288,296,807,70,663,229,756,982]","arrowleft","","true","0","0","300","1000","[""0001_N1000_K0300_CLIQUE"",""0054_N1000_K0300_NOCLIQUE""]"
"","","","","","audio-keyboard-response","48","117423","0.0-48.0-0.0-1.0","","null","audio_feedback/right/coin01.mp3","null","","","","","0","0","300","1000","[""0001_N1000_K0300_CLIQUE"",""0054_N1000_K0300_NOCLIQUE""]"
"","","","","","canvas-keyboard-response","49","125030","0.0-49.0-0.0-0.0","","6691","","arrowleft","[281,558,838,621,158,325,869,77,266,260,947,703,898,949,756,169,150,630,140,475,17,690,903,351,735,951,693,687,900,750,429,588,614,740,635,78,59,858,715,407,515,269,338,824,851,244,433,616,688,25,214,331,977,310,926,925,101,919,383,707,394,185,121,36,698,262,992,976,496,958,318,674,192,842,509,517,889,61,670,390,684,163,416,474,273,298,848,743,438,212,816,827,31,353,783,732,678,841,623,22,880,45,398,469,522,834,69,55,327,797,800,780,852,486,886,963,818,355,81,126,739,420,608,639,928,376,175,102,574,776,311,601,536,161,490,92,208,66,966,186,453,291,738,959,936,104,589,907,597,745,354,595,421,110,729,803,478,979,264,296,235,879,890,895,766,467,178,283,499,397,265,930,85,664,460,409,263,473,643,501,742,79,523,844,223,492,54,717,655,831,278,843,883,711,172,286,615,323,93,518,704,258,75,350,561,251,348,67,103,940,57,999,224,201,358,923,779,689,97,512,692,441,405,749,304,668,823,336,232,339,194,307,657,228,506,960,53,661,764,870,725,582,799,909,374,606,342,191,202,929,209,731,293,906,990,861,644,916,257,767,585,312,279,658,802,143,195,545,447,196,132,629,917,956,8,362,406,642,23,559,637,968,566,682,910,927,5,242,33,505,807,29,231,83,758,49,419,508,189,510,287,211,272,713,386,391,828,94,524,254,442,76,133,443,217,444,346,577,404,500,697,301,753,685,373,774,90,770,305,352,245,628,414,751,666,805,520,99,243,736,91,27,129,741,546,458,795,277,240,912,877,649,334,274,388,719,100,646,533,752,837,484,814,809,425,759,677,598,124,219,607,901,389,20,253,455,200,457,972,786,162,540,364,337,641,796,452,448,167,50,593,193,361,170,839,519,983,982,30,480,924,177,650,544,617,468,538,205,3,456,875,341,71,891,290,967,207,387,218,476,267,400,955,794,634,980,961,239,451,144,576,21,134,525,319,368,887,583,11,792,964,573,997,718,871,938,846,563,696,590,333,190,171,701,440,986,2,89,210,426,534,463,340,95,769,180,128,584,722,330,40,248,42,777,271,804,647,477,896,382,0,18,46,450,539,437,902,714,179,825,633,591,402,380,549,292,699,72,865,64,481,513,535,111,393,431,672,415,122,15,489,84,424,849,832,529,204,80,835,580,282,981,793,709,881,651,411,893,618,60,581,261,230,44,760,371,514,781,127,313,521,206,943,488,384,88,904,761,853,125,726,9,504,578,234,365,449,366,627,120,7,220,321,748,471,115,948,12,148,74,249,962,969,372,422,995,268,306,315,446,199,157,14,945,572,329,39,459,813,259,203,299,920,62,727,600,403,314,256,721,379,836,778,571,862,775,830,819,811,864,710,605,944,659,117,850,941,922,454,757,840,147,182,724,502,58,638,410,43,873,994,395,806,620,255,396,297,575,41,507,335,86,915,671,357,511,932,238,412,105,602,16,700,631,276,787,428,65,114,594,789,592,785,957,856,250,423,908,38,555,984,868,183,51,408,537,730,897,884,531,142,694,815,683,675,978,645,138,556,113,669,135,130,109,625,952,160,188,911,987,187,360,596,905,445,653,810,349,156,611,154,326,754,165,343,991,892,119,937,526,413,385,280,579,691,241,418,654,370,552,971,771,728,557,152,570,885,996,87,663,151,747,560,284,48,679,918,24,288,702,553,82,436,716,762,640,733,859,108,773,32,417,363,610,470,149,527,619,860,867,112,624,176,485,159,213,6,300,613,914,483,603,252,913,493,139,695,174,612,872,427,332,141,808,472,34,303,746,98,107,660,567,215,720,662,587,942,950,543,548,673,137,516,798,970,676,285,430,324,934,482,622,222,359,225,965,755,973,461,569,221,322,954,975,26,369,434,788,667,763,68,706,989,812,491,19,933,826,131,562,270,791,551,829,466,882,782,817,233,173,487,665,568,73,294,164,833,974,226,921,347,63,10,554,392,439,494,894,874,399,381,681,528,316,309,106,37,464,998,13,317,680,116,953,153,145,432,302,542,498,599,822,931,878,168,765,28,737,70,734,712,198,609,216,247,146,541,935,462,497,236,604,229,988,564,495,993,479,863,985,656,96,821,772,344,532,845,184,855,854,632,320,565,503,550,375,876,435,586,708,790,123,35,866,289,768,723,367,857,246,946,847,801,377,888,636,648,237,356,4,652,465,784,547,1,181,308,744,155,136,197,705,52,56,275,47,295,686,401,820,626,899,939,328,345,530,378,227,166,118]","arrowleft","","true","0","1","300","1000","[""0055_N1000_K0300_CLIQUE"",""0058_N1000_K0300_NOCLIQUE""]"
"","","","","","audio-keyboard-response","50","126221","0.0-49.0-0.0-1.0","","null","audio_feedback/right/coin01.mp3","null","","","","","0","1","300","1000","[""0055_N1000_K0300_CLIQUE"",""0058_N1000_K0300_NOCLIQUE""]"
"","","","","","canvas-keyboard-response","51","129486","0.0-50.0-0.0-0.0","","2329","","arrowright","[228,285,575,971,878,590,794,720,580,886,388,52,486,905,343,943,18,921,902,798,922,493,86,254,535,696,861,990,25,232,811,527,991,977,491,605,770,953,525,755,492,423,40,425,689,913,417,541,465,495,326,376,677,658,539,3,430,693,988,17,23,754,369,925,941,441,917,873,679,966,654,703,687,293,27,440,322,637,750,85,729,197,332,189,51,92,563,319,146,938,507,891,783,596,386,396,995,361,810,134,656,46,759,49,157,84,415,935,91,6,206,983,849,299,475,524,177,763,791,564,34,279,118,769,227,967,784,395,136,485,38,141,31,699,22,284,548,168,549,792,934,968,389,391,981,840,271,869,836,872,143,183,14,946,263,390,829,280,585,552,716,432,340,808,42,472,220,2,675,671,188,367,178,982,447,203,926,392,610,184,217,834,171,201,653,786,153,298,28,342,307,451,985,830,752,104,633,519,645,520,181,956,513,158,762,422,252,453,950,920,678,780,526,573,169,733,71,701,411,205,904,500,207,576,832,398,617,951,12,128,234,62,318,970,58,434,856,776,259,29,516,640,765,862,867,674,275,462,715,714,865,212,809,288,738,601,221,329,821,407,33,844,567,317,109,710,582,401,782,296,114,54,806,414,894,853,690,94,323,948,100,664,403,998,912,888,213,394,874,534,502,593,505,258,87,358,350,66,879,405,378,517,111,841,331,595,69,631,727,338,900,164,592,470,706,218,882,851,315,426,362,445,933,308,245,459,739,278,261,744,170,250,506,226,897,606,931,312,39,379,825,854,107,366,691,547,210,496,802,150,788,607,947,885,494,625,145,638,647,511,591,722,996,98,370,130,630,725,857,822,642,95,349,68,306,682,756,692,385,424,962,777,120,688,673,325,154,748,36,179,241,855,1,240,196,373,30,77,24,816,165,522,204,819,147,503,508,820,870,979,123,483,41,801,173,797,695,972,192,700,928,800,4,980,795,460,550,622,989,557,608,427,19,639,344,194,818,901,707,518,82,681,987,327,216,889,26,410,741,139,570,949,113,115,828,728,676,609,347,377,200,231,237,745,916,568,348,129,224,860,773,287,501,908,892,565,262,815,355,457,295,163,286,283,724,56,199,742,119,945,545,276,627,984,211,667,723,105,8,174,215,449,884,866,602,230,99,294,353,435,858,669,880,512,686,89,571,778,57,360,466,397,914,764,937,555,848,944,923,444,450,88,243,612,439,932,560,767,603,837,929,161,746,72,749,623,542,387,704,468,481,10,454,305,644,660,504,131,116,45,351,121,402,117,942,421,598,352,67,721,337,994,661,477,335,0,711,265,482,757,616,930,239,761,190,78,538,75,558,753,256,694,620,273,80,301,334,309,939,339,578,383,108,554,484,418,455,766,958,442,413,559,927,993,847,717,151,804,835,556,448,583,730,186,59,81,489,374,509,779,562,812,176,850,903,796,824,456,657,233,35,277,960,229,274,515,269,452,961,684,613,831,175,838,90,514,384,628,976,814,185,648,106,743,964,997,304,665,718,551,93,574,893,827,852,132,208,246,712,969,249,487,772,813,372,160,446,406,793,719,65,7,110,952,805,63,918,833,846,668,244,799,974,488,975,267,272,666,697,907,428,357,726,102,619,291,510,314,144,826,529,641,135,906,260,79,789,579,760,300,9,632,774,584,936,731,330,662,375,473,523,768,463,324,807,431,438,531,604,787,222,268,191,600,469,464,910,235,225,142,803,572,581,247,313,138,652,399,316,992,257,126,461,202,954,467,310,940,354,698,957,155,412,148,683,915,371,219,48,101,499,333,140,162,758,887,198,321,5,242,864,60,345,588,635,47,924,458,282,875,569,498,670,112,533,419,594,122,702,843,530,302,986,346,959,223,409,876,167,380,561,297,705,618,152,74,359,536,400,709,336,55,546,651,44,771,839,149,303,577,393,532,97,999,859,368,643,255,193,708,890,436,566,64,182,437,649,540,32,266,156,50,663,416,713,599,21,521,629,365,911,253,270,659,785,61,478,634,735,871,909,817,650,845,159,685,955,965,737,480,680,672,364,311,747,292,103,621,497,180,895,474,264,471,963,281,166,289,614,528,877,646,195,214,238,209,408,978,11,863,790,537,655,43,76,73,636,328,883,587,96,868,248,363,589,420,842,543,13,586,404,53,124,236,624,896,479,433,443,881,381,626,898,16,615,356,320,544,83,133,125,740,899,781,15,734,187,732,919,736,382,172,251,290,553,611,137,127,20,751,597,476,37,341,490,973,429,775,70,823]","arrowright","","true","0","2","267","1000","[""0042_N1000_K0267_NOCLIQUE"",""0055_N1000_K0267_CLIQUE""]"
"","","","","","audio-keyboard-response","52","130681","0.0-50.0-0.0-1.0","","null","audio_feedback/right/coin01.mp3","null","","","","","0","2","267","1000","[""0042_N1000_K0267_NOCLIQUE"",""0055_N1000_K0267_CLIQUE""]"
"","","","","","canvas-keyboard-response","53","133753","0.0-51.0-0.0-0.0","","2175","","arrowright","[476,700,68,949,612,567,739,32,409,776,46,127,298,318,333,260,804,664,222,171,968,447,324,200,631,224,34,775,388,723,764,191,496,806,449,230,444,372,681,841,979,629,611,417,55,280,758,759,343,243,252,644,186,259,196,877,797,940,815,898,583,720,297,819,928,100,817,39,237,738,193,249,671,327,843,920,473,573,926,76,1,399,604,406,800,709,436,607,993,72,263,787,121,634,839,645,277,846,268,177,364,907,128,450,840,174,350,633,152,732,935,569,257,135,281,821,360,661,36,455,889,151,341,609,673,402,495,355,28,728,536,253,424,392,271,91,518,660,65,858,57,477,956,408,376,443,636,674,368,717,93,331,911,491,845,195,487,883,457,663,745,927,139,283,537,941,77,69,965,446,87,532,278,617,755,451,173,635,142,548,627,418,938,43,474,30,322,726,339,366,300,266,206,11,13,558,836,500,921,600,813,578,729,499,317,897,594,831,148,751,325,880,422,672,999,714,285,876,92,248,98,244,470,60,950,599,359,614,630,874,356,946,905,638,789,125,834,639,646,439,113,209,922,888,453,683,682,20,977,842,229,859,35,89,15,59,563,484,680,251,302,293,589,403,53,867,497,16,975,469,829,5,198,86,591,262,783,557,586,109,404,994,702,129,78,870,656,917,615,18,94,791,838,101,48,190,588,899,232,827,890,575,559,647,855,625,410,652,204,394,665,976,167,716,383,900,256,51,227,632,943,712,893,851,895,161,272,754,844,796,539,959,718,653,371,648,122,756,387,520,407,608,160,748,613,398,390,66,833,459,957,568,879,381,749,385,825,516,136,180,448,17,353,540,924,475,218,114,315,793,85,61,964,104,744,465,514,643,947,713,202,414,375,913,551,502,862,236,659,27,601,624,493,552,529,208,74,6,686,374,386,485,556,948,437,169,734,731,698,163,741,467,361,792,81,724,951,901,506,812,942,939,214,143,108,856,313,677,528,340,150,553,807,188,456,378,178,54,963,261,981,986,276,932,782,270,145,335,466,323,349,291,598,430,525,989,157,397,878,762,703,274,391,871,554,750,974,881,885,24,405,875,255,585,873,574,62,582,811,670,464,492,860,84,857,861,357,425,83,345,479,832,308,247,185,168,666,426,828,290,763,462,382,808,413,123,423,524,442,584,805,71,111,620,37,306,642,471,533,560,995,637,747,658,441,250,231,864,79,706,352,415,996,287,219,891,746,505,884,771,823,482,848,284,798,58,753,362,534,197,794,162,416,531,694,621,233,52,590,419,159,26,655,207,761,650,730,523,998,64,830,336,289,991,358,205,925,411,338,690,868,421,348,785,649,138,49,483,522,931,509,201,906,688,918,967,199,788,2,707,23,389,602,67,596,962,478,691,933,130,662,194,221,42,334,501,242,307,223,337,294,95,292,103,542,179,144,786,153,527,124,246,321,854,22,781,488,40,429,587,937,915,513,146,896,504,727,668,4,969,695,203,31,618,80,379,503,440,211,106,572,216,837,226,936,566,380,945,316,220,760,176,154,25,7,972,472,985,696,721,134,541,88,12,628,606,916,982,779,486,354,752,320,768,182,640,803,126,156,538,158,112,393,431,853,577,234,344,245,850,592,70,435,564,826,137,705,10,82,489,952,801,581,170,616,865,210,116,319,767,992,365,685,304,955,546,215,978,626,141,461,490,693,802,790,97,545,849,701,736,132,396,510,29,784,395,303,460,623,570,131,692,90,463,887,954,295,903,684,73,373,225,958,235,240,697,769,809,610,852,369,892,296,311,997,264,187,433,269,521,184,810,597,971,44,301,363,603,934,866,117,777,902,508,667,676,189,919,305,33,675,863,914,0,657,115,923,678,9,119,47,481,593,213,110,715,970,669,165,166,778,217,56,961,679,562,239,120,427,743,254,544,740,212,765,279,576,960,147,14,438,822,342,795,757,511,641,102,824,149,330,140,63,872,332,19,799,987,468,118,944,314,480,561,733,708,494,445,619,719,847,164,286,966,722,183,432,310,21,814,547,258,549,622,172,428,908,515,328,50,766,299,953,869,543,367,818,912,228,699,347,780,288,309,105,772,605,75,512,580,282,498,988,41,329,412,8,654,351,882,133,192,526,267,984,99,377,550,241,454,434,774,273,155,370,929,983,773,238,651,725,886,384,909,816,312,735,401,452,400,3,555,458,704,910,275,980,45,835,742,565,535,820,689,265,530,346,973,770,326,595,175,96,38,507,737,579,711,904,894,517,687,571,930,181,990,519,420,710,107]","arrowright","","true","0","3","267","1000","[""0072_N1000_K0267_NOCLIQUE"",""0034_N1000_K0267_CLIQUE""]"
"","","","","","audio-keyboard-response","54","134941","0.0-51.0-0.0-1.0","","null","audio_feedback/right/coin01.mp3","null","","","","","0","3","267","1000","[""0072_N1000_K0267_NOCLIQUE"",""0034_N1000_K0267_CLIQUE""]"
"","","","","","canvas-keyboard-response","55","138479","0.0-52.0-0.0-0.0","","2574","","arrowleft","[475,826,411,241,378,372,394,528,485,632,126,771,38,60,920,979,505,449,703,273,415,845,649,298,551,592,331,747,172,90,45,437,269,36,103,23,181,770,363,20,33,910,452,129,827,244,143,410,943,569,825,52,774,123,357,721,724,854,894,514,366,855,145,525,634,961,154,727,133,809,907,536,214,839,905,606,903,458,11,63,908,108,104,501,113,72,618,259,890,138,194,302,680,178,960,751,835,722,2,71,312,155,863,510,233,645,324,401,575,962,418,624,247,885,583,926,646,519,886,881,914,328,317,898,171,330,921,86,853,224,334,500,945,930,106,834,356,822,948,329,669,140,1,306,370,754,294,290,729,602,567,580,658,523,633,559,956,456,758,665,678,714,385,118,987,748,789,526,200,342,6,206,643,516,464,694,256,663,407,688,486,54,221,879,801,589,992,115,416,192,584,134,766,965,92,966,469,263,780,135,557,875,784,686,164,947,354,936,210,813,880,447,81,170,906,734,417,347,823,232,818,111,105,151,162,803,603,540,696,39,942,572,431,712,436,941,180,450,785,121,204,390,819,656,110,872,676,433,278,588,816,616,793,220,805,929,26,550,512,933,704,918,697,752,197,800,915,119,292,163,470,283,82,841,542,836,13,790,304,545,299,37,419,681,53,51,152,919,69,527,405,590,631,325,142,667,647,243,28,179,158,147,0,980,587,491,889,474,788,258,208,777,465,440,8,120,402,571,636,29,911,728,67,332,226,326,479,462,391,102,964,684,731,969,604,457,453,32,615,931,611,249,157,972,185,296,745,928,87,473,343,74,625,637,842,623,994,100,648,837,736,896,666,711,718,651,783,565,597,270,167,216,963,976,309,468,824,148,487,136,876,4,174,96,260,996,954,337,787,883,865,117,364,503,408,268,336,57,93,424,300,169,24,862,362,991,141,199,985,246,585,983,978,16,695,982,620,429,612,242,255,833,125,705,934,146,99,830,446,61,897,257,531,89,815,706,577,772,236,187,18,878,359,454,782,750,19,561,884,953,76,610,524,75,655,759,993,477,622,201,276,280,205,353,50,229,374,441,944,189,316,369,922,340,284,558,746,463,85,812,471,191,499,515,626,389,716,959,779,360,275,79,605,710,687,543,301,21,341,621,909,338,127,553,864,541,619,43,598,231,495,532,828,852,701,741,650,522,537,859,428,7,223,591,659,196,186,112,254,739,938,642,483,47,673,14,664,10,849,368,601,438,426,988,266,675,65,114,78,176,949,297,478,607,218,77,488,802,230,295,388,810,838,888,352,116,932,68,958,635,482,156,190,293,533,381,383,574,489,27,445,768,773,492,857,638,670,811,64,277,238,740,912,455,749,844,851,425,891,755,870,41,981,305,287,358,375,211,498,867,322,420,970,808,264,699,132,203,778,995,213,311,393,58,107,937,776,730,397,900,460,715,738,762,989,799,161,846,685,691,98,490,576,513,193,209,971,421,874,55,493,726,641,159,609,9,404,22,804,5,613,957,467,742,439,282,723,281,517,713,166,578,49,272,507,109,644,175,682,946,539,222,986,652,595,990,461,361,12,320,466,25,396,769,149,791,481,188,794,661,48,627,882,480,511,725,858,952,735,472,594,614,333,3,630,165,535,902,538,245,150,398,654,202,744,798,377,847,237,318,596,901,321,387,924,183,586,315,570,820,814,821,235,518,345,313,427,856,850,628,895,668,756,935,639,973,250,217,660,534,443,967,997,497,581,434,760,265,274,131,795,252,448,775,702,843,168,414,225,698,939,708,380,763,73,346,564,382,350,520,529,335,617,46,432,548,657,599,792,913,442,288,568,732,66,509,974,797,547,207,831,940,781,916,234,228,761,371,303,765,764,861,327,700,239,267,693,494,314,753,40,563,31,355,195,984,423,502,556,848,88,549,917,832,308,91,384,307,286,400,153,44,692,546,144,608,83,873,15,406,289,319,677,743,376,212,767,629,271,17,34,62,349,430,97,530,435,892,496,251,807,806,365,392,923,653,674,409,860,476,709,95,504,399,554,451,70,593,968,395,101,59,717,122,130,444,829,198,137,459,285,248,893,30,679,573,310,975,348,925,951,253,672,871,379,279,35,689,227,94,124,560,683,555,999,173,720,42,579,182,177,412,927,733,796,184,869,508,240,866,662,422,707,215,786,544,552,737,904,339,671,403,291,373,344,506,868,219,562,351,690,977,386,840,262,367,323,887,56,955,128,817,261,899,566,80,413,640,719,521,600,84,998,757,877,139,160,582,950,484]","arrowleft","","true","0","4","233","1000","[""0086_N1000_K0233_CLIQUE"",""0026_N1000_K0233_NOCLIQUE""]"
"","","","","","audio-keyboard-response","56","139682","0.0-52.0-0.0-1.0","","null","audio_feedback/right/coin01.mp3","null","","","","","0","4","233","1000","[""0086_N1000_K0233_CLIQUE"",""0026_N1000_K0233_NOCLIQUE""]"
"","","","","","canvas-keyboard-response","57","143462","0.0-53.0-0.0-0.0","","2844","","arrowleft","[678,359,743,312,295,807,333,180,44,143,286,400,107,983,330,501,745,990,946,603,349,553,565,106,562,342,351,197,209,791,919,32,856,718,283,256,767,43,817,483,506,931,972,61,961,513,366,734,438,59,15,275,581,642,166,649,837,186,9,914,68,964,379,640,476,147,299,502,149,933,728,635,911,721,534,916,144,98,703,509,13,110,164,326,307,777,844,903,618,155,249,841,371,195,539,101,445,84,302,621,752,788,568,980,866,48,185,507,563,572,626,479,19,29,216,352,639,725,951,647,712,298,20,405,37,984,932,905,189,208,702,16,848,378,481,390,269,680,707,316,315,340,713,717,459,411,87,99,451,169,150,790,956,413,875,590,821,296,382,606,11,935,116,148,493,843,643,891,142,145,656,41,64,710,994,162,257,669,157,541,955,12,849,685,251,976,92,755,46,141,978,238,125,986,650,950,167,124,780,641,612,191,211,53,398,404,673,993,867,958,781,886,822,487,353,259,443,815,174,609,219,223,675,470,877,454,354,719,835,414,570,368,317,770,34,939,915,2,196,133,722,705,810,630,917,948,756,121,684,515,177,776,79,301,826,720,489,995,549,731,857,471,39,334,799,129,171,66,83,795,854,748,310,676,63,824,938,190,614,724,436,230,944,812,997,619,374,135,35,289,314,937,1,3,424,622,102,243,446,726,973,240,616,172,33,607,161,431,638,634,253,532,842,595,838,6,637,692,51,512,246,387,894,942,580,175,667,350,558,146,811,28,592,24,876,181,117,708,409,681,968,636,764,805,888,733,108,775,421,221,355,753,328,575,574,213,526,407,785,899,415,904,402,827,495,466,293,73,417,179,714,623,241,346,757,304,816,433,344,97,727,503,589,14,364,369,50,321,694,305,879,620,878,747,765,426,953,119,588,375,396,81,723,633,271,45,27,627,137,737,456,156,194,437,499,794,65,25,773,338,898,77,554,774,863,365,846,564,482,448,122,529,929,423,538,768,435,845,151,408,584,206,716,399,860,896,220,546,982,62,895,883,123,412,228,525,247,168,460,363,965,235,430,182,478,648,761,85,690,232,598,88,389,242,741,798,611,709,979,697,793,772,551,923,54,441,787,957,292,874,604,749,729,625,82,836,577,659,69,661,559,571,490,797,941,796,550,873,759,132,212,754,544,615,868,651,505,67,345,488,600,267,510,969,455,901,270,406,940,229,205,936,391,193,496,750,617,113,599,339,91,601,103,40,324,763,738,545,432,887,881,783,218,907,109,442,322,163,309,711,335,566,954,527,49,8,318,392,900,596,462,760,207,486,75,86,672,668,491,989,498,691,823,686,395,154,653,657,492,201,297,118,427,784,477,153,533,452,450,889,114,701,696,825,72,802,865,0,239,198,597,244,560,762,303,645,569,360,975,472,555,464,58,285,160,674,556,792,130,262,828,131,60,834,524,308,80,453,832,203,89,522,594,178,540,159,370,557,320,290,341,847,274,361,631,401,388,902,998,261,567,880,55,128,434,813,890,23,422,111,870,56,730,199,602,897,740,42,742,214,380,909,504,439,469,999,962,918,666,744,819,36,920,266,548,520,925,806,864,457,134,963,996,662,273,202,281,183,306,801,803,71,516,778,591,831,449,381,497,294,252,336,869,127,912,547,704,225,862,500,952,735,852,628,331,840,511,343,751,210,959,987,706,947,663,769,403,949,677,245,17,287,981,960,291,115,57,892,419,698,280,655,394,440,682,357,967,38,934,771,384,523,988,52,139,234,4,22,187,358,362,138,323,924,227,96,425,332,839,579,991,467,910,700,444,786,699,260,410,319,528,893,277,688,829,518,18,608,215,613,258,474,447,204,120,758,126,913,646,494,855,376,136,386,480,248,192,224,654,5,859,583,861,652,629,268,922,465,173,543,31,176,624,347,21,830,418,325,105,485,850,670,420,605,263,926,519,264,416,695,578,514,217,927,313,393,94,665,508,908,977,383,985,970,715,47,671,906,833,851,746,930,739,170,531,587,233,74,664,140,871,683,93,689,200,158,517,974,90,237,100,593,858,265,687,632,356,530,429,152,885,872,461,30,348,644,337,800,586,693,329,112,377,188,610,300,236,276,70,184,582,535,222,76,373,789,945,809,921,458,104,288,254,853,250,992,95,732,428,884,484,231,521,542,882,736,576,814,278,766,26,475,463,10,279,473,966,226,679,928,943,537,7,282,372,804,367,660,272,78,311,573,165,971,820,658,552,561,284,818,468,397,255,536,585,385,779,782,327,808]","arrowleft","","true","0","5","233","1000","[""0071_N1000_K0233_CLIQUE"",""0090_N1000_K0233_NOCLIQUE""]"
"","","","","","audio-keyboard-response","58","144661","0.0-53.0-0.0-1.0","","null","audio_feedback/right/coin01.mp3","null","","","","","0","5","233","1000","[""0071_N1000_K0233_CLIQUE"",""0090_N1000_K0233_NOCLIQUE""]"
"","","","","","canvas-keyboard-response","59","146305","0.0-54.0-0.0-0.0","","675","","arrowright","[666,887,920,987,370,948,282,841,103,562,967,224,35,773,528,744,524,584,890,868,647,65,847,462,758,409,938,285,366,643,824,450,239,618,946,48,440,289,715,605,360,78,665,60,471,950,735,889,92,284,589,884,112,317,963,918,786,996,110,408,722,413,801,781,388,109,817,810,840,147,5,338,743,293,367,845,443,33,646,475,886,812,844,671,907,383,521,774,988,126,332,537,334,899,544,320,557,990,966,63,965,566,503,870,301,74,972,547,864,347,674,425,67,423,501,2,598,539,752,374,395,59,581,310,601,474,750,69,376,553,291,900,181,309,104,116,856,839,769,386,981,615,749,846,634,594,312,321,520,55,158,861,156,64,419,105,675,134,865,862,121,630,567,851,463,717,891,118,570,625,574,207,681,937,751,515,989,621,401,431,17,469,454,143,954,811,737,523,496,689,288,696,252,745,232,91,149,343,628,9,148,915,85,835,739,892,927,472,241,910,923,128,678,488,979,977,784,925,306,513,267,505,738,676,152,790,541,82,171,372,144,624,805,189,418,389,609,257,583,754,663,831,53,924,363,904,482,350,859,867,433,164,140,187,98,248,649,491,150,929,590,384,458,838,11,495,560,704,632,295,481,888,411,997,269,186,253,216,420,246,652,778,390,701,259,139,461,72,497,427,20,661,97,13,724,36,402,453,428,359,587,637,405,80,308,755,926,215,852,573,243,726,368,258,718,843,526,922,613,952,180,716,619,559,713,478,695,223,875,921,357,18,278,262,791,783,86,942,323,531,198,821,894,102,43,166,930,213,448,75,355,908,580,876,16,486,212,572,415,679,733,95,793,145,362,397,734,422,487,617,517,375,120,933,542,506,741,683,654,329,978,299,710,484,137,76,593,898,84,209,686,179,866,403,871,237,770,250,893,183,830,551,826,40,296,468,157,725,265,38,322,775,452,19,906,510,51,728,174,897,172,903,439,522,100,759,493,535,391,626,804,591,272,378,256,662,995,138,208,994,622,502,73,568,173,130,407,815,379,592,639,414,642,369,444,795,575,318,115,314,354,768,281,896,816,287,550,37,975,331,789,780,286,736,185,249,424,664,169,345,534,970,729,803,932,974,564,275,451,694,911,176,270,934,236,399,732,788,878,99,305,727,303,586,255,351,123,697,532,168,358,659,980,227,94,746,499,429,280,585,764,233,554,771,58,874,406,969,445,153,973,161,714,756,602,417,204,842,690,854,857,373,279,707,633,231,8,611,820,57,720,52,719,693,127,833,943,798,529,25,504,6,324,730,627,201,955,380,984,597,901,101,959,24,47,916,640,119,337,518,10,230,608,883,111,814,818,421,563,277,4,218,691,490,220,819,561,77,412,850,772,548,142,667,393,747,688,442,757,254,766,571,935,706,396,992,188,349,655,426,165,328,656,261,244,364,268,687,217,877,0,545,673,636,872,885,552,565,28,543,578,483,294,829,928,184,902,913,849,782,466,546,251,394,29,807,999,479,753,668,400,947,32,860,316,175,682,828,435,191,711,677,494,638,806,3,582,315,748,274,247,740,800,953,163,680,260,381,477,508,178,437,837,991,49,956,326,313,600,489,931,45,129,777,341,298,940,276,998,441,945,117,635,834,151,202,917,569,599,809,556,240,245,457,657,330,263,135,705,712,802,221,377,14,985,42,623,761,530,779,455,56,971,825,238,325,813,339,205,430,234,434,146,93,404,90,731,410,297,302,214,193,122,432,476,968,858,194,692,614,436,222,511,290,22,549,512,785,606,141,382,576,44,108,836,895,114,39,983,12,944,211,89,229,905,88,982,808,387,264,607,447,340,26,336,958,949,438,133,672,352,869,155,266,124,470,644,709,863,27,986,365,579,311,162,34,66,79,353,446,283,533,794,225,71,723,464,879,919,881,319,960,685,459,610,449,555,392,361,796,516,292,721,154,653,669,195,1,832,473,596,765,603,519,167,631,197,702,190,708,136,203,307,327,485,767,21,616,827,192,855,957,342,348,70,577,787,61,612,456,742,113,588,853,177,242,507,206,226,356,509,125,131,160,976,823,344,645,398,500,107,333,651,882,83,465,62,822,848,629,300,96,951,909,335,595,648,641,228,620,762,650,540,15,467,210,81,31,346,87,698,797,54,527,480,106,304,939,7,170,196,763,703,492,962,699,132,700,219,271,912,684,799,936,525,604,460,46,385,941,538,235,760,880,670,498,30,558,371,776,182,200,961,159,964,273,914,41,199,792,68,416,993,23,658,660,514,873,536,50]","arrowright","","true","0","6","217","1000","[""0098_N1000_K0217_NOCLIQUE"",""0097_N1000_K0217_CLIQUE""]"
"","","","","","audio-keyboard-response","60","147501","0.0-54.0-0.0-1.0","","null","audio_feedback/right/coin01.mp3","null","","","","","0","6","217","1000","[""0098_N1000_K0217_NOCLIQUE"",""0097_N1000_K0217_CLIQUE""]"
"","","","","","canvas-keyboard-response","61","149935","0.0-55.0-0.0-0.0","","1445","","arrowleft","[660,396,10,550,479,998,264,855,986,90,934,199,773,764,500,539,933,496,887,336,26,696,929,754,505,503,741,612,669,700,62,779,905,511,553,597,755,209,708,293,420,265,133,605,339,219,695,135,55,522,714,813,467,588,816,406,976,596,756,266,600,226,100,869,512,297,761,577,241,291,454,882,918,106,671,783,768,186,784,58,688,88,947,477,883,77,486,562,96,906,47,316,679,788,652,582,738,964,294,435,950,720,468,146,70,163,843,856,818,397,974,838,245,462,168,162,335,465,75,710,134,727,201,857,68,559,300,484,841,578,674,971,473,268,411,939,681,785,474,718,8,184,259,5,563,548,834,832,353,129,587,849,42,874,666,528,634,240,0,37,589,672,311,321,428,280,190,635,598,122,737,166,616,547,160,921,284,614,179,774,98,980,509,89,144,361,438,447,206,103,835,654,566,125,244,136,543,315,705,532,267,782,215,944,959,658,523,831,936,898,956,719,570,606,900,167,565,544,535,158,677,151,202,927,131,235,623,955,793,924,984,430,276,601,870,425,373,66,625,157,988,575,630,222,632,475,871,611,661,794,556,417,56,569,778,590,392,171,74,92,675,386,64,729,224,12,324,269,667,750,177,426,619,640,932,897,682,541,248,216,993,263,592,521,963,15,54,766,31,593,104,237,44,646,445,805,303,412,642,752,808,822,150,504,930,302,35,662,253,95,978,781,444,967,797,780,41,38,753,701,629,457,212,379,969,246,585,372,466,39,34,143,491,676,573,839,391,139,398,683,456,476,608,369,878,602,620,864,751,203,798,730,450,431,228,792,814,463,604,86,111,962,140,331,493,368,763,712,169,327,691,803,628,249,298,423,765,60,884,717,147,520,931,355,749,966,899,470,443,518,256,529,227,948,487,114,574,517,1,19,519,554,983,480,599,107,24,164,404,762,197,760,207,388,415,875,116,356,304,436,743,943,643,506,854,247,581,807,715,804,471,994,318,861,376,568,772,464,418,560,823,648,668,953,824,817,610,594,283,257,155,459,371,329,424,583,810,145,626,908,796,531,119,449,433,872,758,408,811,579,968,704,393,711,699,382,174,777,458,113,707,18,307,310,526,881,30,33,889,920,192,650,670,308,46,663,938,990,183,877,149,333,156,819,999,863,542,655,28,45,987,102,405,286,71,844,508,659,437,439,362,649,996,342,21,801,101,132,713,995,338,603,345,225,341,726,786,545,858,407,549,78,126,218,170,309,461,767,347,833,495,735,723,744,200,80,489,865,383,825,558,734,427,110,513,728,757,363,301,530,586,552,572,494,478,252,981,664,99,693,279,453,195,290,381,94,894,538,731,187,313,251,127,790,23,22,4,229,191,289,800,43,746,945,716,76,775,965,812,296,121,580,85,142,242,65,375,536,384,591,364,722,196,181,656,273,706,501,498,561,903,490,488,27,907,348,960,232,685,879,895,564,890,306,374,84,49,14,314,951,851,441,172,7,72,50,124,925,876,387,622,236,975,893,483,991,272,217,826,827,997,687,846,261,419,378,533,769,414,919,451,912,651,613,367,689,271,653,985,234,189,926,492,117,359,721,448,210,698,262,416,830,852,557,287,901,325,138,888,809,954,148,725,770,83,176,165,847,806,130,357,992,40,732,128,400,472,446,275,208,673,862,394,223,910,332,319,281,198,211,914,81,631,540,282,748,421,686,385,322,154,123,916,680,896,97,747,935,6,845,497,194,32,923,358,537,739,243,952,829,320,837,182,390,546,137,937,350,982,69,946,867,377,389,633,740,742,621,957,647,576,285,277,288,36,868,337,295,233,442,340,366,638,278,429,87,942,904,91,13,507,239,815,571,551,641,380,694,692,370,885,510,584,258,989,515,452,499,795,360,317,911,161,973,51,657,514,260,274,836,29,977,231,173,970,940,108,328,11,909,820,791,16,221,789,9,20,873,213,759,354,644,776,193,214,159,255,802,180,972,771,917,615,902,326,403,840,17,609,733,678,152,432,52,534,842,53,469,892,848,440,349,697,61,853,141,913,880,410,67,254,636,958,63,109,220,3,607,618,250,270,941,860,525,665,736,434,961,745,205,413,153,73,230,175,422,979,524,485,637,724,928,639,922,684,344,299,25,527,703,365,481,351,627,402,567,57,82,828,595,482,312,409,204,787,93,866,460,185,891,395,624,915,949,178,799,502,48,2,859,323,516,343,886,709,617,115,112,401,455,346,555,292,105,334,59,305,645,188,690,850,330,821,399,120,79,118,352,702,238]","arrowleft","","true","0","7","217","1000","[""0082_N1000_K0217_CLIQUE"",""0008_N1000_K0217_NOCLIQUE""]"
"","","","","","audio-keyboard-response","62","151121","0.0-55.0-0.0-1.0","","null","audio_feedback/right/coin01.mp3","null","","","","","0","7","217","1000","[""0082_N1000_K0217_CLIQUE"",""0008_N1000_K0217_NOCLIQUE""]"
"","","","","","canvas-keyboard-response","63","154238","0.0-56.0-0.0-0.0","","2145","","arrowleft","[943,475,626,89,962,478,140,372,793,491,849,334,121,537,212,186,358,105,709,467,85,500,525,391,893,980,200,246,539,714,568,244,824,309,720,142,193,422,875,607,931,197,628,865,289,393,188,656,416,122,803,189,588,581,322,672,809,385,638,855,479,821,854,730,148,669,584,17,339,291,954,894,338,107,92,141,529,895,619,45,995,248,755,718,389,245,746,871,450,668,343,157,172,198,424,305,258,167,242,827,281,800,955,520,993,370,84,503,645,541,18,445,651,349,498,184,165,772,449,215,335,850,650,69,580,138,470,397,551,57,789,14,617,333,880,888,597,956,147,64,442,100,327,946,878,353,192,522,260,508,533,745,117,463,884,664,476,95,313,788,781,194,559,676,439,785,684,741,859,307,499,936,396,413,80,595,544,593,945,547,572,976,301,670,407,776,733,430,545,8,907,27,204,969,377,712,234,65,428,886,554,178,866,910,924,704,408,890,209,227,835,41,754,355,534,99,577,528,20,487,582,960,548,801,716,42,552,164,3,282,986,666,594,180,83,492,4,560,662,403,665,221,120,156,494,22,831,767,457,817,627,818,115,252,465,723,196,587,846,293,23,715,845,375,104,602,830,318,93,420,576,73,981,692,724,214,974,230,464,400,847,725,231,135,822,352,290,532,315,970,973,270,286,935,380,820,634,605,600,233,773,876,513,958,28,239,183,269,932,994,663,460,753,384,701,304,950,501,829,357,131,839,612,274,63,747,237,717,330,939,519,66,838,611,102,38,351,368,521,201,402,555,708,768,137,179,777,693,779,506,540,236,637,228,319,124,996,913,191,298,292,340,174,631,613,216,589,805,206,366,603,968,127,786,919,748,133,235,1,56,527,436,606,543,426,466,906,129,43,324,287,953,404,673,118,336,294,418,713,590,734,654,625,76,771,126,362,798,265,903,341,150,219,920,567,373,299,378,266,205,182,633,815,71,243,153,807,264,678,163,922,168,928,751,39,952,706,448,883,546,799,421,159,288,507,828,569,267,26,257,819,382,806,891,917,825,921,963,770,210,91,816,208,229,514,447,604,857,461,864,82,321,757,496,98,434,897,783,756,35,843,125,158,344,477,176,915,867,504,621,930,978,570,6,132,929,687,54,472,550,347,297,113,975,775,295,134,238,350,2,868,977,488,574,365,933,325,578,24,509,253,889,836,536,143,703,573,698,379,432,482,21,505,516,261,905,882,262,240,610,641,615,387,458,766,682,123,694,944,696,19,966,60,112,249,990,446,885,702,999,659,657,989,251,728,323,512,456,484,740,279,853,887,116,697,471,332,892,900,185,443,30,852,52,211,808,161,858,699,609,502,101,636,630,50,601,797,524,139,727,451,213,247,31,623,814,810,399,435,268,495,70,444,224,59,639,11,899,493,802,462,280,220,438,345,566,653,468,302,908,96,259,486,677,68,166,695,79,565,109,81,454,37,874,417,431,67,232,987,87,782,425,171,94,337,872,256,34,680,561,136,114,47,851,749,427,759,511,583,49,481,386,277,314,707,119,46,842,585,144,556,326,643,765,648,652,538,982,490,485,361,632,967,840,271,575,780,530,833,942,861,406,36,32,331,175,53,369,647,77,128,40,374,86,154,16,55,790,658,72,558,762,275,308,74,938,250,926,640,719,97,394,744,985,553,947,562,542,29,660,620,356,911,152,761,195,381,795,870,531,778,674,328,901,655,354,598,173,622,863,877,564,263,401,710,283,218,367,794,199,360,811,285,429,405,796,856,988,579,635,535,278,25,177,419,998,441,812,433,523,316,591,925,671,661,769,629,415,841,388,927,273,423,916,700,12,914,912,376,760,383,860,984,371,346,300,614,957,78,971,586,951,222,202,596,474,296,949,599,742,992,455,329,390,453,774,618,848,750,342,110,898,904,187,979,51,896,526,646,721,395,826,644,272,145,149,563,310,517,549,437,0,410,689,284,190,90,223,804,170,823,667,217,510,489,103,688,459,792,181,473,972,317,711,686,739,88,764,146,412,497,398,255,681,162,312,608,683,784,348,225,483,75,923,409,130,15,959,731,879,411,837,738,964,452,690,758,414,991,844,763,5,735,515,364,997,791,787,736,254,752,13,320,902,9,732,61,642,7,62,649,691,948,705,155,834,518,226,862,440,918,48,624,557,111,169,685,303,571,108,363,160,909,359,469,151,726,722,306,961,729,311,983,965,616,276,743,675,937,44,869,941,679,934,58,737,592,203,33,480,10,241,813,873,881,832,207,940,106,392]","arrowleft","","true","0","8","200","1000","[""0023_N1000_K0200_CLIQUE"",""0032_N1000_K0200_NOCLIQUE""]"
"","","","","","audio-keyboard-response","64","155442","0.0-56.0-0.0-1.0","","null","audio_feedback/right/coin01.mp3","null","","","","","0","8","200","1000","[""0023_N1000_K0200_CLIQUE"",""0032_N1000_K0200_NOCLIQUE""]"
"","","","","","canvas-keyboard-response","65","157268","0.0-57.0-0.0-0.0","","870","","arrowright","[941,691,918,217,138,530,474,21,309,740,582,262,360,271,438,824,834,137,39,597,827,563,862,774,393,100,280,164,814,609,197,425,437,91,777,847,94,785,400,289,835,334,521,993,203,818,451,142,724,707,350,738,794,570,314,723,936,628,871,452,806,43,649,339,886,419,567,949,28,696,716,427,207,263,243,412,272,757,330,150,542,681,801,31,141,342,647,846,855,366,876,970,778,587,414,486,454,2,663,744,396,259,562,287,320,539,698,113,606,728,346,722,685,533,697,187,296,493,996,602,813,216,861,966,702,153,535,887,841,347,381,241,885,644,64,76,300,118,937,656,784,703,345,107,503,407,952,665,984,273,612,692,811,762,369,219,409,972,283,594,432,15,390,478,368,874,353,525,690,453,727,195,507,895,112,526,22,461,53,468,147,840,16,673,84,245,889,655,281,98,199,755,950,615,20,554,961,63,130,529,517,607,331,890,561,748,796,284,586,729,637,0,808,321,733,166,581,189,584,200,380,955,186,179,236,180,638,793,120,299,193,532,462,700,50,666,884,749,11,253,26,816,232,600,134,154,798,165,32,499,788,726,544,434,246,510,30,719,276,994,128,662,247,223,326,992,175,47,242,89,654,121,456,349,258,888,418,308,898,558,502,688,545,620,531,274,617,833,679,596,881,926,467,27,909,325,317,430,670,460,819,158,70,359,7,645,857,849,225,139,820,608,71,860,577,450,735,566,181,751,479,304,922,422,660,238,882,328,327,222,145,515,182,144,227,319,923,764,481,695,985,675,601,221,643,305,10,348,864,116,524,405,953,943,982,576,264,448,458,249,167,804,367,547,55,108,75,599,753,540,250,433,297,746,56,927,90,902,560,68,473,516,37,410,789,282,192,286,799,391,908,669,408,58,398,646,537,939,823,770,220,99,648,316,845,913,574,653,593,170,852,709,658,160,676,775,619,440,123,33,109,291,588,57,998,131,208,514,981,991,371,683,488,905,579,497,706,74,13,459,589,374,152,9,879,975,869,306,731,25,24,38,198,550,312,907,717,987,734,760,611,680,747,988,441,971,773,842,59,255,983,363,779,592,689,97,618,351,903,122,986,771,781,559,230,641,763,194,853,906,694,614,19,443,854,957,12,472,278,298,805,979,229,80,469,636,303,228,1,483,877,209,40,435,215,767,565,911,117,465,490,83,29,293,310,843,947,172,967,352,640,429,72,4,455,872,631,211,997,538,487,978,416,447,132,896,901,920,389,743,583,866,916,839,627,329,344,571,759,69,61,365,661,605,635,428,552,261,92,439,787,67,239,954,45,664,782,394,356,492,332,624,285,498,176,802,672,235,415,768,168,650,894,436,161,307,848,968,837,951,935,715,449,375,337,868,713,178,878,944,934,807,254,224,508,277,758,406,213,315,143,357,904,17,512,36,496,387,115,260,522,87,667,126,275,233,925,945,476,917,504,140,745,930,35,446,252,386,580,810,343,687,159,8,705,494,373,420,684,86,362,491,832,214,900,651,206,378,442,712,231,88,501,761,188,49,404,623,302,148,518,897,730,44,157,914,604,106,711,119,93,797,341,875,95,482,354,426,146,151,171,323,910,792,948,622,382,739,489,163,899,506,383,205,831,335,212,642,572,829,313,338,630,279,77,965,883,401,958,668,226,969,736,201,772,402,5,34,682,162,980,42,569,578,295,674,129,598,610,110,248,523,103,704,990,66,858,105,464,686,411,595,177,756,470,621,290,372,202,844,856,257,830,828,46,776,933,822,932,750,155,204,541,741,942,127,564,81,718,557,701,556,795,444,629,714,929,336,880,377,962,234,379,399,101,292,520,424,891,870,237,527,385,78,873,863,174,268,626,821,477,85,995,270,780,196,485,549,266,324,185,534,766,102,495,956,294,850,333,421,699,23,423,82,124,573,52,812,388,355,817,183,721,613,135,184,893,340,173,791,169,361,413,575,710,892,3,511,301,865,384,528,963,553,218,790,591,928,919,815,960,509,6,395,111,513,149,720,859,403,417,267,480,445,48,463,765,536,41,964,431,976,104,737,999,940,370,240,989,959,51,867,322,809,475,519,912,725,60,251,392,826,133,973,311,838,603,851,555,783,742,376,457,548,484,190,585,505,256,633,466,803,836,358,156,693,590,974,546,79,244,65,754,18,732,543,634,800,191,364,769,639,73,397,114,921,938,652,471,786,318,96,657,210,931,677,136,625,752,946,500,671,551,616,54,288,977,632,125,678,14,825,62,659,915,568,924,265,708,269]","arrowright","","true","0","9","200","1000","[""0006_N1000_K0200_NOCLIQUE"",""0083_N1000_K0200_CLIQUE""]"
"","","","","","audio-keyboard-response","66","158462","0.0-57.0-0.0-1.0","","null","audio_feedback/right/coin01.mp3","null","","","","","0","9","200","1000","[""0006_N1000_K0200_NOCLIQUE"",""0083_N1000_K0200_CLIQUE""]"
"","","","","","canvas-keyboard-response","67","160255","0.0-58.0-0.0-0.0","","792","","arrowright","[162,566,257,722,142,119,251,129,672,919,932,445,810,872,576,467,998,849,532,985,771,812,754,301,835,111,701,596,206,45,605,158,424,920,815,899,645,886,888,182,713,49,963,402,590,702,116,401,623,510,711,360,418,134,20,298,637,964,202,173,408,261,351,166,681,192,353,399,548,544,680,909,622,190,790,491,260,768,694,144,471,514,764,726,325,999,894,21,766,658,733,29,627,538,903,735,186,384,1,16,616,852,481,676,259,73,172,279,847,684,980,492,725,906,207,278,607,216,223,435,443,720,460,610,663,442,933,6,320,630,416,92,690,322,779,524,714,39,848,231,650,240,719,856,423,589,821,448,307,843,233,868,84,270,55,634,794,413,440,479,535,262,977,200,795,917,708,924,201,10,744,478,499,150,271,527,870,289,756,91,487,876,330,877,961,695,640,414,567,908,297,778,994,157,792,121,449,665,723,834,122,370,138,523,390,762,562,68,239,477,935,58,828,615,990,555,955,61,890,188,274,784,773,911,365,697,106,677,788,224,379,78,743,926,620,814,549,183,34,565,740,987,193,238,875,407,128,556,710,35,281,15,217,824,957,195,41,13,807,951,891,344,357,107,242,842,545,685,356,310,657,276,197,101,686,96,171,126,530,759,454,452,222,372,536,553,203,265,30,28,846,36,9,750,943,537,513,215,739,484,82,178,241,164,85,674,497,174,243,521,542,53,515,249,975,87,882,758,115,918,165,823,65,512,291,415,226,730,400,841,139,160,757,329,705,341,338,141,493,391,235,104,916,652,579,801,485,704,931,568,761,857,873,427,844,747,300,419,786,970,369,163,100,336,496,600,221,287,991,804,293,683,299,469,70,671,154,653,601,557,599,854,869,209,462,434,99,942,880,659,179,983,501,25,752,441,333,283,910,832,79,520,438,662,531,277,436,475,727,76,603,2,263,37,349,728,236,642,905,817,275,581,355,749,382,863,831,649,517,895,218,324,366,850,398,64,673,546,385,833,194,913,43,313,3,900,463,940,851,889,12,50,858,326,633,925,554,808,825,595,346,81,563,212,495,883,394,992,511,837,827,428,639,456,551,692,386,133,734,444,670,577,978,381,285,204,136,989,952,227,159,732,707,753,151,898,305,248,426,572,205,612,304,368,42,112,971,425,332,785,526,255,506,700,403,345,97,19,152,27,264,799,853,103,534,148,230,915,934,508,494,793,177,958,196,660,406,822,354,315,968,125,937,67,829,109,609,776,507,874,117,464,181,550,818,928,923,450,108,331,767,724,969,69,519,411,582,583,628,939,593,698,816,458,56,48,295,294,836,89,23,395,253,688,180,584,504,570,340,321,643,284,228,127,717,745,574,655,409,211,503,830,597,981,328,0,777,373,789,465,838,763,40,22,887,760,147,130,798,412,679,245,208,176,250,664,374,342,169,787,718,149,956,914,410,539,282,472,77,696,359,703,482,417,347,57,280,268,746,364,569,624,959,54,488,960,219,114,392,982,865,335,805,461,389,105,712,796,806,879,286,437,63,559,86,453,296,451,480,93,885,528,947,509,646,433,862,678,635,560,693,88,904,518,316,800,984,741,312,661,393,540,529,772,965,421,541,949,878,303,306,380,18,170,131,737,8,102,272,505,397,881,921,687,337,377,648,155,371,26,167,378,945,803,721,350,907,429,656,706,585,988,118,631,363,644,143,457,146,682,731,405,24,334,578,547,715,859,571,667,636,132,72,145,137,689,813,323,51,993,490,32,966,256,199,210,430,839,819,522,185,500,871,476,232,5,976,311,31,290,619,986,901,161,94,738,47,902,361,948,153,861,339,225,308,606,187,884,327,75,483,608,455,826,820,979,422,474,729,269,140,855,362,431,543,168,246,123,252,953,234,654,98,229,641,621,944,191,774,267,258,860,604,625,765,996,811,376,198,59,699,288,626,62,866,867,617,573,489,110,214,292,809,80,420,973,502,220,266,929,938,175,613,930,897,319,90,638,184,922,486,95,755,71,769,318,4,44,558,675,470,11,586,791,967,588,156,840,611,564,314,666,466,309,950,387,74,135,946,997,358,770,561,17,751,716,647,709,83,404,14,594,46,213,896,651,120,629,432,38,598,7,736,113,446,972,473,632,459,468,317,962,189,237,974,367,602,927,587,797,533,591,552,439,247,352,498,52,447,892,244,375,668,864,936,742,348,575,343,802,912,780,254,748,995,954,273,691,525,614,302,66,33,618,941,388,516,845,124,783,775,592,669,781,383,782,580,396,893,60]","arrowright","","true","0","10","183","1000","[""0030_N1000_K0183_NOCLIQUE"",""0084_N1000_K0183_CLIQUE""]"
"","","","","","audio-keyboard-response","68","161442","0.0-58.0-0.0-1.0","","null","audio_feedback/right/coin01.mp3","null","","","","","0","10","183","1000","[""0030_N1000_K0183_NOCLIQUE"",""0084_N1000_K0183_CLIQUE""]"
"","","","","","canvas-keyboard-response","69","164572","0.0-59.0-0.0-0.0","","2148","","arrowleft","[309,593,708,377,345,481,18,96,669,412,609,638,469,289,134,293,21,591,397,979,296,22,920,16,988,981,245,581,613,739,421,992,302,983,640,111,729,448,5,155,498,523,884,380,725,33,615,657,161,540,202,892,418,447,821,511,208,803,875,650,900,664,261,196,144,755,59,949,285,193,576,323,783,199,512,141,45,610,355,305,504,805,956,502,375,905,471,868,292,791,331,420,835,522,95,543,921,853,878,706,321,516,454,198,730,335,233,683,478,433,553,549,424,348,557,663,250,907,23,251,203,162,960,627,687,958,311,796,573,598,736,662,852,599,127,347,689,976,894,150,274,808,948,661,863,451,362,78,762,57,643,174,842,525,213,495,763,867,589,833,52,990,226,372,190,677,390,940,935,780,61,68,334,109,752,527,3,408,586,343,911,148,425,975,587,11,241,828,231,837,98,804,891,879,656,890,234,568,636,29,383,773,225,232,600,893,668,126,526,368,483,774,625,873,851,105,378,209,603,83,649,651,510,26,91,69,439,556,631,608,829,748,869,257,470,441,621,371,607,659,15,881,709,723,246,472,688,592,756,222,968,980,229,952,760,644,877,972,442,349,561,815,256,201,336,901,464,533,822,717,34,195,264,176,76,795,146,217,966,825,6,590,291,505,876,630,912,373,124,436,102,719,295,915,157,24,970,908,633,800,248,64,998,914,58,333,288,401,964,19,327,192,872,903,43,427,294,97,812,652,938,595,518,204,411,216,84,101,434,476,486,856,694,384,381,260,218,982,697,616,542,771,417,310,166,10,618,572,269,560,675,280,55,746,301,524,702,131,671,917,820,843,429,77,200,658,619,290,696,365,580,818,136,957,366,931,452,183,923,888,405,606,991,757,337,149,120,42,409,989,715,221,132,169,462,332,403,432,691,648,529,340,139,635,440,353,588,265,286,316,1,660,672,695,72,735,89,996,670,764,12,574,916,350,564,492,854,180,92,344,721,733,712,722,367,637,925,262,860,710,0,223,832,32,819,152,945,172,308,392,431,244,963,919,718,508,175,379,792,39,446,342,801,622,563,582,430,107,263,503,690,167,857,370,704,47,145,698,99,65,994,319,571,928,946,243,153,356,211,212,27,720,711,306,927,468,103,210,929,693,455,41,206,389,279,453,750,680,194,971,154,826,933,315,258,56,49,566,902,255,583,215,939,913,460,639,17,457,423,834,459,487,270,51,108,951,941,158,831,184,781,676,569,793,799,393,465,63,402,632,790,395,978,845,88,515,467,142,961,2,596,528,987,814,494,239,666,278,485,883,437,93,282,579,156,885,159,25,137,806,744,400,682,130,732,207,655,932,554,387,567,786,299,626,445,674,782,789,959,973,326,904,461,871,70,413,90,235,426,314,612,565,118,268,317,509,653,624,497,926,220,500,594,846,701,398,422,585,521,228,186,936,322,501,855,399,673,552,324,840,865,275,140,406,346,785,168,67,692,252,188,741,513,716,532,641,35,965,827,224,125,839,466,765,450,642,249,993,339,185,81,534,558,924,548,874,726,974,906,918,87,360,110,546,544,374,617,307,115,100,104,496,768,953,861,351,944,272,985,654,359,870,969,802,284,300,86,754,364,205,859,214,7,277,634,942,713,506,665,897,328,731,749,44,480,562,13,443,539,79,329,541,798,170,30,770,82,352,848,178,847,499,388,147,240,129,886,864,491,382,862,930,94,838,303,361,537,53,550,999,247,114,122,767,490,997,514,71,517,66,283,787,479,681,950,738,242,36,788,74,358,325,318,776,458,547,858,700,259,177,824,219,747,489,601,784,415,164,830,357,273,414,898,8,354,267,112,995,444,611,312,73,477,766,187,133,117,171,977,686,519,20,386,775,85,753,728,817,530,742,438,119,778,910,816,943,60,54,253,887,734,922,909,604,165,28,751,575,538,46,363,463,62,779,745,385,31,435,866,797,410,954,727,737,179,810,116,197,667,813,577,520,841,707,297,602,376,173,50,482,947,394,761,769,75,236,281,419,759,811,14,559,123,254,237,531,391,182,298,807,967,369,128,304,191,276,449,578,135,488,679,705,287,714,536,758,620,962,341,647,138,614,703,584,628,889,143,551,163,880,896,160,37,934,330,113,271,227,740,9,151,338,396,836,823,937,850,986,121,555,181,699,684,230,623,629,777,416,266,955,80,38,456,645,646,48,685,882,473,772,407,899,313,605,484,597,404,428,794,743,570,475,106,545,320,535,238,4,189,507,984,809,40,474,849,895,493,844,678,724]","arrowleft","","true","0","11","183","1000","[""0010_N1000_K0183_CLIQUE"",""0067_N1000_K0183_NOCLIQUE""]"
"","","","","","audio-keyboard-response","70","165762","0.0-59.0-0.0-1.0","","null","audio_feedback/right/coin01.mp3","null","","","","","0","11","183","1000","[""0010_N1000_K0183_CLIQUE"",""0067_N1000_K0183_NOCLIQUE""]"
"","","","","","canvas-keyboard-response","71","167648","0.0-60.0-0.0-0.0","","923","","arrowleft","[456,157,589,404,343,344,199,736,902,827,702,844,220,824,918,401,233,638,398,553,590,494,179,49,588,438,410,623,534,214,892,497,593,541,796,711,278,50,488,327,195,393,369,434,363,587,741,421,913,868,944,13,729,509,100,373,166,863,5,115,47,979,605,667,378,585,263,542,642,3,356,962,461,504,316,470,473,821,475,248,597,352,165,693,20,911,339,523,948,909,689,463,975,346,407,766,873,878,561,238,999,296,288,383,337,731,82,754,173,80,154,615,708,626,146,939,460,931,891,447,660,492,482,275,922,648,956,443,603,834,142,865,750,462,253,871,367,805,36,776,282,419,200,567,437,803,187,23,191,651,135,923,624,645,941,576,109,471,479,314,40,601,189,566,427,958,217,29,847,425,691,522,452,718,835,719,333,688,476,332,241,787,229,584,422,830,57,961,417,366,739,966,78,647,703,828,974,814,209,640,659,942,107,987,798,886,592,58,881,11,150,502,953,810,245,583,252,353,775,705,535,937,171,21,411,168,17,554,558,845,929,785,811,140,608,96,0,884,685,297,936,12,306,722,155,87,516,99,910,426,540,272,555,864,181,609,25,759,338,753,8,833,665,490,860,218,254,698,391,33,41,255,661,668,55,574,249,184,733,440,329,266,563,432,319,611,63,433,34,385,409,518,657,793,498,951,806,389,993,656,71,526,853,621,876,158,934,781,225,591,360,620,485,842,712,634,65,56,76,351,454,594,119,196,77,728,18,616,676,915,372,537,600,445,779,880,926,394,132,259,341,839,947,52,129,662,595,128,774,740,392,94,384,197,680,37,815,582,458,493,764,194,760,280,386,405,932,610,116,67,677,219,156,481,707,321,79,370,709,581,88,557,299,696,361,292,632,148,396,906,756,637,980,336,943,345,782,124,120,183,627,945,198,487,598,978,559,464,716,568,820,511,449,161,444,908,644,376,989,695,291,579,777,244,379,669,780,144,767,70,247,93,846,749,855,268,539,85,758,724,368,127,630,867,768,612,108,264,22,893,83,35,14,899,348,726,683,687,664,235,761,193,201,992,625,618,350,903,138,720,311,265,16,670,323,382,866,565,228,959,126,562,862,675,308,436,517,177,495,990,237,654,575,312,613,883,652,325,448,822,315,286,715,895,971,889,530,636,841,64,673,877,898,68,897,304,418,365,439,838,813,843,545,854,258,710,399,725,938,234,149,441,949,543,477,380,172,19,455,998,185,152,505,429,105,465,738,32,765,639,104,223,31,869,976,514,457,395,130,682,60,571,381,326,1,69,176,208,371,778,9,650,97,215,520,42,757,262,186,544,192,631,692,374,206,182,797,397,122,90,289,307,431,75,28,285,946,985,188,550,500,143,848,991,955,538,570,387,622,602,133,727,256,6,532,521,743,284,84,763,885,684,406,549,160,163,66,857,970,38,204,769,294,117,742,328,704,713,46,586,569,30,151,536,102,928,701,746,817,359,101,790,295,110,737,62,614,996,293,435,86,486,519,831,679,927,342,577,301,723,113,227,507,4,320,983,995,246,653,678,804,300,39,277,484,170,986,310,91,211,239,954,81,748,967,894,809,773,216,313,663,402,808,697,222,175,799,243,930,812,377,875,95,232,164,180,802,145,666,375,977,153,762,963,643,257,489,721,856,496,982,901,924,213,472,279,714,818,27,896,935,44,354,48,825,882,747,972,960,548,528,832,837,655,125,920,45,606,231,794,207,851,167,269,619,795,755,629,478,221,890,203,904,118,730,412,250,849,2,964,751,274,836,131,628,349,139,340,98,599,283,870,694,858,416,633,281,533,388,273,912,355,786,290,745,791,547,261,73,205,965,734,852,770,800,226,408,690,466,413,717,706,917,604,861,829,141,305,529,324,24,212,952,826,276,74,147,322,240,735,169,162,136,474,925,364,752,442,510,546,309,260,850,428,512,242,900,807,362,317,969,178,106,483,914,61,988,573,816,552,513,572,303,686,89,174,578,430,744,358,950,564,879,415,641,916,772,524,784,54,699,230,649,674,43,467,114,515,10,801,446,451,607,59,596,671,51,357,334,508,459,190,414,872,134,531,527,480,997,335,905,672,732,658,973,491,819,15,940,823,450,236,298,506,469,271,635,123,210,789,783,224,331,112,968,874,137,556,423,26,424,111,390,403,53,468,994,400,103,347,788,92,681,501,121,771,919,270,503,907,700,420,72,251,551,499,957,453,981,792,859,646,202,302,984,560,318,580,888,525,330,840,933,267,921,7,887,287,159,617]","arrowleft","","true","0","12","167","1000","[""0026_N1000_K0167_CLIQUE"",""0078_N1000_K0167_NOCLIQUE""]"
"","","","","","audio-keyboard-response","72","168841","0.0-60.0-0.0-1.0","","null","audio_feedback/right/coin01.mp3","null","","","","","0","12","167","1000","[""0026_N1000_K0167_CLIQUE"",""0078_N1000_K0167_NOCLIQUE""]"
"","","","","","canvas-keyboard-response","73","171302","0.0-61.0-0.0-0.0","","1455","","arrowleft","[332,413,930,23,767,958,285,742,45,408,264,480,282,385,688,928,918,776,231,922,248,400,592,363,917,694,9,690,764,683,210,89,560,43,737,931,727,497,261,915,83,653,718,777,738,976,664,429,78,144,272,328,715,547,686,843,548,988,505,398,571,33,488,458,182,470,301,370,79,612,535,381,178,589,699,244,330,451,198,587,275,516,774,59,393,428,820,380,717,540,528,137,58,879,940,63,585,485,883,38,294,117,204,670,989,336,656,456,242,96,968,415,610,311,461,728,71,870,478,441,818,36,47,643,518,91,469,495,108,651,796,869,465,695,121,809,39,696,959,898,736,755,529,719,2,459,333,186,536,409,609,118,697,878,26,239,303,913,871,872,84,111,481,961,842,374,868,128,605,558,299,778,731,661,570,542,436,939,140,187,977,645,155,814,279,942,569,292,450,851,321,123,712,575,345,770,115,865,65,541,361,168,984,329,808,564,170,839,725,0,987,507,858,437,331,948,110,971,247,902,22,446,486,113,640,263,447,208,810,833,164,262,821,680,438,716,687,423,463,220,890,476,355,230,956,530,11,642,926,862,647,90,844,757,943,840,80,391,44,37,130,654,442,389,146,97,520,366,522,882,621,225,290,300,390,632,985,538,414,145,383,257,919,856,382,866,360,426,402,166,201,782,753,406,375,106,807,352,52,855,317,214,416,625,354,663,338,631,154,826,574,445,946,973,351,353,161,792,597,785,936,126,42,933,392,953,649,545,762,927,999,633,444,825,604,677,515,357,344,270,141,775,252,565,358,10,886,588,982,310,966,346,148,296,938,467,925,266,489,912,550,425,27,905,608,460,788,377,739,734,950,636,730,711,109,305,498,701,356,586,4,579,666,81,709,907,674,534,240,494,284,297,903,288,238,617,691,151,591,221,552,765,601,226,323,135,100,5,479,705,979,116,745,965,119,99,293,105,289,623,888,908,668,482,627,427,281,800,16,490,877,599,233,484,206,779,379,563,582,499,173,280,860,637,537,291,219,349,432,162,364,25,501,157,630,867,935,525,634,748,726,937,997,15,598,17,86,309,440,101,234,620,41,254,684,177,700,638,193,847,901,819,955,424,430,342,532,841,805,801,513,127,993,508,832,920,454,313,799,129,132,606,652,829,134,378,40,199,308,641,824,772,493,189,12,650,669,147,998,343,367,972,646,798,771,236,723,602,18,34,616,815,496,190,577,404,412,802,794,318,960,224,298,410,945,369,740,433,466,954,316,228,359,20,104,306,191,322,277,732,396,29,909,566,754,435,693,1,136,325,665,249,845,893,722,418,992,891,830,949,194,781,531,549,962,69,60,517,314,897,980,746,714,527,964,576,245,679,149,803,176,307,139,192,405,828,900,250,512,401,504,75,28,546,14,347,74,910,544,283,76,160,122,124,611,887,817,399,584,468,947,676,628,759,216,95,672,751,54,57,784,31,222,876,793,595,337,312,371,503,896,991,237,857,561,813,613,657,295,743,163,271,744,790,334,539,227,724,838,787,251,975,181,103,735,125,823,276,120,92,557,783,419,24,324,766,348,773,981,167,304,319,521,64,853,302,209,278,98,13,372,835,812,615,873,622,180,816,951,761,171,431,70,253,752,256,72,152,213,811,287,658,906,395,648,259,556,223,836,986,473,861,769,509,205,662,635,600,114,562,472,892,827,7,55,904,603,269,365,667,514,215,185,67,944,439,165,483,274,195,477,990,368,265,56,320,614,397,880,133,474,3,341,681,921,255,207,593,384,708,500,704,112,780,235,335,567,889,49,678,327,629,62,590,894,707,94,573,791,594,568,974,747,760,197,885,996,795,350,848,150,850,822,107,407,932,246,53,797,786,626,131,580,68,487,243,983,475,403,655,373,159,218,172,32,526,884,864,421,749,143,703,211,543,268,502,212,967,923,619,702,519,969,710,66,859,93,682,660,443,572,449,837,77,673,863,491,551,286,315,834,831,618,689,184,386,852,553,952,420,455,200,175,768,188,73,789,229,464,50,88,203,911,929,524,232,713,941,183,51,806,6,624,411,995,376,138,729,457,978,895,510,21,61,555,675,8,924,596,533,267,326,957,202,153,462,452,48,741,35,607,583,763,174,196,554,492,85,849,46,471,578,102,899,659,875,422,963,581,340,158,671,994,756,916,169,258,217,692,750,706,19,914,644,881,388,698,559,685,87,448,506,733,804,387,142,241,934,362,854,639,721,511,970,720,339,394,179,273,30,417,758,82,260,434,453,846,523,874,156]","arrowleft","","true","0","13","167","1000","[""0013_N1000_K0167_CLIQUE"",""0085_N1000_K0167_NOCLIQUE""]"
"","","","","","audio-keyboard-response","74","172501","0.0-61.0-0.0-1.0","","null","audio_feedback/right/coin01.mp3","null","","","","","0","13","167","1000","[""0013_N1000_K0167_CLIQUE"",""0085_N1000_K0167_NOCLIQUE""]"
"","","","","","canvas-keyboard-response","75","175433","0.0-62.0-0.0-0.0","","1984","","arrowleft","[204,243,96,335,365,789,190,127,175,740,444,27,266,419,295,394,679,178,569,837,361,23,849,712,773,993,387,553,26,902,803,415,388,976,40,458,368,384,546,601,618,155,871,786,39,567,107,343,752,950,654,71,990,94,505,187,210,529,675,769,621,248,264,661,884,6,147,713,722,945,903,468,348,627,611,319,878,836,664,173,932,774,110,228,265,80,896,235,698,149,442,764,483,410,103,466,999,79,257,268,99,281,610,101,955,263,486,890,184,554,517,433,454,467,333,491,383,633,551,732,139,949,619,400,536,987,796,318,193,158,446,339,350,709,207,526,105,864,561,649,859,401,560,881,420,253,872,580,605,375,98,154,855,586,447,12,477,309,643,357,448,282,436,441,164,226,844,506,425,870,406,432,293,518,126,418,462,685,574,575,275,533,464,44,156,91,395,555,767,840,133,67,120,180,55,662,570,956,744,994,944,688,695,413,762,824,63,298,381,285,54,213,3,297,161,409,811,549,143,772,977,991,17,234,4,684,372,516,131,901,122,788,957,92,244,693,540,276,203,742,620,221,351,93,825,443,331,943,689,194,323,597,779,476,576,136,690,148,850,880,171,478,72,367,778,504,802,241,792,279,510,424,216,534,843,363,256,775,820,109,385,648,816,145,856,475,708,765,556,998,113,671,920,95,307,724,174,638,898,925,366,874,532,887,905,992,219,888,393,493,959,463,262,947,159,87,485,185,423,923,784,910,829,879,68,629,376,798,397,471,233,954,469,641,8,391,832,132,353,522,42,434,31,14,818,15,404,747,965,75,489,168,520,37,592,666,706,59,166,260,718,538,137,757,594,682,997,983,686,325,480,971,341,805,452,911,287,613,206,69,338,498,238,426,826,668,209,978,673,967,130,340,382,386,73,753,915,960,288,57,49,231,942,861,707,899,697,578,47,10,128,907,701,683,653,172,222,768,607,515,396,106,583,982,891,165,186,599,672,634,657,303,770,117,455,461,670,451,330,663,114,687,760,140,562,833,21,86,931,390,558,66,52,232,229,76,97,979,514,24,806,646,225,715,157,484,877,743,934,170,188,766,563,356,577,509,972,821,177,305,632,83,189,407,399,624,535,310,617,352,736,414,378,402,41,984,308,741,710,900,181,853,364,817,588,922,422,81,711,320,7,927,108,751,78,830,914,332,572,636,88,51,842,412,313,749,848,651,405,329,882,369,511,277,153,659,215,730,966,542,791,456,857,403,355,494,582,838,124,100,623,492,787,519,568,655,200,702,167,669,30,89,359,785,328,35,459,438,989,550,314,296,530,639,302,360,227,33,968,525,240,252,25,705,104,895,496,799,593,217,615,723,939,783,985,845,224,602,703,389,118,860,614,294,1,676,841,507,924,62,631,501,726,909,223,714,176,255,258,270,28,660,590,831,513,411,804,77,746,539,272,112,472,835,858,429,439,640,936,344,781,937,2,197,893,996,36,142,65,250,867,916,527,53,502,678,868,964,748,70,163,392,733,60,616,908,704,198,531,630,795,85,758,585,284,963,528,278,727,0,919,102,374,135,500,980,622,691,427,755,239,38,981,716,304,808,642,465,249,875,885,289,292,865,606,969,889,373,652,430,917,523,201,728,151,739,291,819,852,719,912,953,608,283,600,370,84,935,647,897,731,247,543,144,645,665,958,952,604,445,807,681,777,940,182,800,169,717,450,449,906,18,508,342,814,267,839,336,162,938,756,327,125,524,326,759,337,379,61,299,317,696,58,571,537,573,692,29,564,834,150,5,82,771,797,628,230,237,380,497,460,11,584,512,823,312,199,56,995,851,306,973,211,205,886,677,918,544,946,961,557,48,202,637,440,196,921,421,750,300,667,547,470,828,926,13,34,790,725,32,453,354,566,595,316,794,694,780,479,274,974,635,74,986,951,246,90,612,220,904,16,700,218,589,346,119,813,134,763,596,892,362,988,345,46,254,315,699,541,847,793,146,141,846,347,559,503,809,866,19,437,416,311,116,408,734,930,552,680,488,810,183,280,195,192,271,160,735,487,581,482,863,822,545,273,473,609,873,941,579,349,913,521,598,115,650,933,737,428,261,928,123,236,674,801,269,970,761,251,50,242,111,417,377,43,587,656,334,214,862,152,481,286,738,894,457,721,358,827,548,322,290,625,259,245,431,948,815,435,776,45,603,495,208,644,658,129,64,301,929,962,474,869,782,876,371,975,20,729,179,626,138,9,754,883,321,490,22,499,591,191,212,398,854,324,565,121,745,812,720]","arrowleft","","true","0","14","150","1000","[""0065_N1000_K0150_CLIQUE"",""0094_N1000_K0150_NOCLIQUE""]"
"","","","","","audio-keyboard-response","76","176622","0.0-62.0-0.0-1.0","","null","audio_feedback/right/coin01.mp3","null","","","","","0","14","150","1000","[""0065_N1000_K0150_CLIQUE"",""0094_N1000_K0150_NOCLIQUE""]"
"","","","","","canvas-keyboard-response","77","182037","0.0-63.0-0.0-0.0","","4444","","arrowleft","[611,111,945,292,674,761,288,818,44,959,336,371,544,553,794,591,924,615,554,145,806,221,625,836,310,14,529,627,449,974,676,738,150,174,690,665,976,581,852,19,373,866,619,629,108,773,880,320,81,642,27,567,129,727,683,309,939,624,215,656,692,684,845,887,74,62,671,503,865,315,610,982,728,201,312,766,188,197,917,977,50,763,473,180,253,51,951,981,269,247,714,932,522,18,757,443,149,318,831,996,401,840,435,61,875,93,790,186,67,316,209,724,884,372,882,408,962,404,252,968,999,422,494,465,35,652,834,643,265,256,222,574,205,898,859,409,326,673,491,386,385,48,893,502,34,632,16,477,156,383,955,596,198,687,66,136,864,406,844,240,246,533,804,793,399,701,499,899,324,851,306,43,208,489,403,578,694,176,203,75,518,576,280,341,275,104,651,382,969,689,577,22,207,220,575,867,271,155,177,556,923,153,98,285,878,980,784,17,76,925,191,557,677,950,616,157,418,9,131,228,101,100,717,13,901,361,716,350,855,272,126,508,199,182,202,7,427,2,566,378,679,873,877,490,379,573,586,699,317,438,154,633,528,281,237,52,993,236,245,244,466,45,835,680,711,988,36,781,814,424,407,989,960,933,762,905,296,941,218,242,342,130,483,524,169,666,828,384,39,229,769,719,609,468,184,49,159,123,8,366,224,38,97,115,869,370,225,709,617,930,560,675,134,630,364,486,612,640,912,192,15,825,550,551,721,375,603,28,444,351,6,746,839,841,634,12,850,322,568,745,583,819,394,752,451,782,626,920,647,400,848,210,910,889,232,555,758,723,789,821,390,741,695,779,243,445,433,843,706,193,86,301,291,812,293,415,436,230,57,1,430,414,668,822,838,943,816,496,922,389,83,669,954,69,547,903,795,754,181,826,935,374,705,958,25,900,219,664,234,257,0,774,655,187,363,543,165,740,638,947,353,339,759,726,328,495,696,890,128,659,213,163,565,552,729,196,91,891,957,902,421,697,189,644,755,340,571,588,537,985,765,29,760,764,248,771,428,979,730,429,540,73,801,380,260,708,358,948,135,80,343,4,911,646,715,33,667,463,743,367,164,601,908,121,122,963,854,173,972,478,464,820,796,53,30,360,710,325,914,788,517,354,346,239,592,396,984,600,953,527,368,536,940,277,462,983,144,682,927,964,635,946,264,330,455,450,718,871,307,604,813,168,258,702,861,548,725,333,827,995,870,501,88,688,713,127,678,26,597,768,233,37,523,119,355,846,810,332,65,331,21,530,926,734,335,915,897,658,303,876,274,636,481,139,994,569,595,194,255,329,446,282,179,125,214,785,511,206,944,454,63,71,628,772,778,85,138,344,542,956,792,886,235,817,700,938,423,934,223,420,732,500,311,166,973,160,461,538,152,72,68,376,216,970,419,417,892,116,510,786,238,300,572,488,457,453,949,986,613,365,287,82,672,118,842,800,507,107,648,437,211,493,381,387,94,321,470,997,268,323,998,992,585,476,783,79,607,279,598,106,645,975,337,60,410,562,594,913,858,661,739,475,929,249,775,56,803,254,95,833,546,479,497,327,20,460,829,686,59,183,120,286,756,587,452,226,432,971,266,663,338,776,909,631,392,881,297,602,440,431,171,439,411,868,132,472,178,620,526,356,114,904,896,921,413,278,3,78,512,347,103,259,519,879,606,622,434,212,681,141,722,847,541,70,99,484,799,313,395,64,261,459,791,748,815,599,474,142,780,753,185,582,41,961,92,952,161,314,388,456,262,167,467,516,90,895,87,637,742,295,564,623,621,549,110,749,942,398,241,590,707,40,334,767,531,735,797,391,357,936,11,172,158,200,227,505,750,720,47,514,426,377,857,978,777,990,811,532,487,84,304,966,204,883,860,143,787,534,55,545,805,42,284,808,654,402,559,737,231,124,113,693,853,46,349,837,928,991,712,584,89,561,498,605,830,23,520,24,504,509,146,916,283,863,105,442,809,5,832,670,965,919,802,96,102,448,907,447,570,250,352,521,32,273,731,747,482,685,593,77,824,305,348,770,251,539,319,175,807,195,162,918,137,359,117,140,308,579,290,823,535,412,263,170,691,270,147,662,704,856,31,862,148,608,751,151,736,798,580,639,405,589,563,485,888,302,872,416,525,660,289,506,133,369,425,362,276,267,393,967,441,458,641,217,471,931,733,650,744,345,906,397,54,558,703,294,653,618,849,515,298,614,937,299,109,480,513,885,190,10,492,987,698,112,649,894,469,874,58,657]","arrowleft","","true","0","15","150","1000","[""0007_N1000_K0150_CLIQUE"",""0070_N1000_K0150_NOCLIQUE""]"
"","","","","","audio-keyboard-response","78","183240","0.0-63.0-0.0-1.0","","null","audio_feedback/right/coin01.mp3","null","","","","","0","15","150","1000","[""0007_N1000_K0150_CLIQUE"",""0070_N1000_K0150_NOCLIQUE""]"
"","","","","","canvas-keyboard-response","79","187694","0.0-64.0-0.0-0.0","","3480",""," ","[254,5,63,929,349,238,949,696,317,343,104,476,769,323,191,724,136,743,319,543,969,715,852,220,193,562,825,814,661,784,393,392,801,820,132,37,924,382,712,94,546,871,652,4,597,264,361,358,328,728,477,764,131,156,316,247,60,948,1,843,806,240,427,365,815,638,388,552,748,575,560,44,250,468,649,699,776,681,864,650,376,637,478,588,429,705,827,821,426,789,627,359,625,921,88,469,258,702,177,716,383,726,484,988,818,93,978,785,326,915,51,185,77,2,600,987,434,737,100,787,687,930,274,72,109,277,739,568,647,475,604,164,796,967,68,540,977,112,838,542,994,694,955,416,901,837,879,195,623,923,124,846,490,563,352,707,22,276,472,551,701,927,80,53,587,499,706,803,971,626,64,367,992,42,509,344,292,672,844,907,613,888,421,151,928,144,822,348,165,150,350,208,611,830,762,91,645,199,155,870,914,833,910,97,567,536,159,110,404,692,458,779,52,306,621,997,529,162,172,289,946,300,0,936,690,444,599,532,831,181,99,758,920,203,991,553,733,178,732,504,498,749,341,959,922,836,269,877,166,740,714,327,975,812,810,886,932,354,95,970,823,528,506,669,59,656,952,305,774,752,202,272,408,832,571,965,884,225,474,673,378,485,593,619,968,216,957,755,895,583,942,394,396,403,934,549,983,525,607,8,389,251,780,257,941,893,684,262,57,566,46,794,366,882,648,188,654,242,736,731,31,990,133,550,175,861,308,675,483,101,548,653,41,713,337,402,624,765,76,310,16,398,373,108,862,369,561,856,385,24,228,50,678,6,513,608,526,431,260,129,680,125,190,82,700,399,522,28,693,723,834,515,265,497,564,102,644,13,674,850,771,180,19,668,594,533,931,275,858,639,435,876,797,866,78,517,581,703,192,89,840,671,239,15,851,869,570,423,351,20,422,909,256,897,839,878,401,881,791,134,74,430,685,291,417,612,212,38,766,902,708,443,651,606,157,464,21,207,885,993,279,538,798,802,449,999,311,453,111,495,169,676,285,48,371,578,209,747,345,243,126,745,507,500,227,65,127,524,966,58,454,122,414,480,69,620,605,697,43,944,698,380,757,62,215,954,314,609,688,455,17,325,512,84,618,973,793,615,211,890,288,313,66,123,152,554,539,720,246,70,960,153,628,244,523,541,415,502,657,767,465,34,811,601,232,665,900,711,584,926,800,786,324,223,297,461,809,729,576,130,87,333,390,911,29,788,867,580,964,488,887,595,558,582,873,146,473,835,26,357,508,299,412,281,826,598,935,854,92,304,666,375,329,189,56,629,735,12,121,602,149,908,161,261,721,682,379,718,197,982,985,479,641,113,510,312,750,470,278,340,875,35,559,511,790,353,7,847,829,460,428,105,450,331,462,482,397,273,210,759,938,459,889,734,119,730,231,781,738,807,452,753,45,963,880,410,141,591,996,489,86,603,103,107,471,406,372,634,411,98,742,782,49,761,916,140,237,11,940,537,636,695,655,772,746,438,47,332,14,173,205,409,617,163,347,248,321,547,249,463,39,904,148,589,280,487,204,937,727,320,106,596,194,534,282,667,158,25,677,704,981,167,229,640,494,96,437,135,295,683,27,400,138,855,234,817,200,722,544,503,255,577,424,622,171,433,643,493,315,168,364,377,763,30,579,491,120,263,334,925,184,221,865,439,951,467,170,296,266,853,90,182,945,213,360,252,590,760,631,294,768,201,610,555,235,176,160,236,214,709,270,986,751,425,142,860,565,998,128,527,307,689,448,302,664,849,961,813,545,717,773,896,432,883,616,518,387,874,592,635,754,872,962,391,241,659,799,828,418,972,405,75,670,322,950,259,819,979,775,899,535,995,219,384,143,83,868,381,79,179,556,939,338,824,557,446,662,54,572,943,725,145,61,147,355,224,514,891,903,642,81,984,114,206,574,218,336,301,271,691,154,947,18,974,339,816,395,55,117,783,253,420,912,894,284,741,989,633,267,632,3,892,933,137,586,795,457,569,217,222,531,23,356,268,368,413,115,174,660,859,778,335,33,917,686,286,848,342,710,9,842,309,805,505,980,614,679,386,486,440,953,186,196,863,845,118,913,10,756,466,481,906,436,187,646,958,303,71,905,245,32,521,898,419,230,293,362,36,492,346,287,233,496,283,407,116,804,792,663,976,363,370,456,374,298,777,73,919,183,445,585,519,719,744,85,630,40,573,451,67,198,447,290,330,956,658,318,918,530,441,520,516,841,442,139,501,808,770,226,857]","arrowright","","","0","16","133","1000","[""0033_N1000_K0133_NOCLIQUE"",""0076_N1000_K0133_CLIQUE""]"
"","","","","","audio-keyboard-response","80","188979","0.0-64.0-0.0-1.0","","null","audio_feedback/shuffles/shuffle01.mp3","null","","","","","0","16","133","1000","[""0033_N1000_K0133_NOCLIQUE"",""0076_N1000_K0133_CLIQUE""]"
"","","","","","canvas-keyboard-response","81","198330","0.0-64.1-0.1-0.1","","8384","","arrowright","[460,620,817,312,936,138,338,440,368,380,461,794,459,336,88,625,603,52,5,638,99,799,322,560,23,473,580,847,994,363,9,678,615,290,234,924,95,518,970,394,836,72,534,698,853,768,305,412,978,240,431,478,653,666,463,579,906,69,15,824,264,795,857,842,922,841,835,423,822,357,57,804,315,959,140,142,14,563,608,629,652,654,747,504,40,337,785,348,194,50,437,294,18,352,490,597,860,489,684,43,255,622,297,446,870,640,583,914,676,236,788,995,855,696,565,645,301,568,843,158,612,409,67,413,950,626,425,648,129,879,545,182,659,48,405,309,327,287,646,339,618,986,341,989,987,998,416,38,6,395,890,919,21,307,399,576,744,801,873,393,540,947,445,745,211,427,107,272,12,791,232,517,531,208,798,810,22,421,300,786,689,343,726,556,245,830,464,308,611,536,971,595,751,753,398,514,162,823,103,422,533,734,252,379,728,829,82,145,864,900,403,916,304,169,920,538,892,903,782,623,790,164,44,295,435,699,818,269,374,848,310,288,80,589,47,886,222,651,988,184,682,302,996,891,876,323,98,77,641,243,275,737,831,70,602,377,586,984,954,674,861,192,13,713,1,385,858,639,957,54,739,644,432,621,230,355,524,601,878,231,33,10,951,877,262,927,807,588,375,934,675,279,219,546,901,761,154,770,905,346,519,787,73,871,909,888,358,161,735,921,656,58,819,479,741,887,548,68,400,972,481,204,111,528,968,372,690,679,37,383,731,280,866,331,212,215,333,321,89,397,953,185,452,946,146,757,11,688,265,893,24,523,102,420,266,722,159,575,344,939,85,282,596,723,32,750,238,541,983,593,721,360,172,494,774,749,705,202,392,993,505,834,141,296,186,316,837,663,999,45,706,590,974,284,220,814,411,465,371,124,980,292,257,17,94,840,334,233,510,884,685,965,686,725,454,572,482,933,738,488,406,480,90,867,525,658,330,74,254,779,964,191,165,704,616,784,851,131,707,147,833,46,496,949,635,773,570,457,81,932,25,680,34,670,766,285,736,311,183,133,952,930,106,913,139,105,872,401,852,720,838,532,175,755,495,263,660,605,180,943,246,904,329,136,93,895,200,631,981,582,962,144,278,442,806,135,759,687,581,881,513,584,196,551,396,542,134,369,193,166,585,41,573,66,137,664,171,434,564,388,59,65,157,439,456,390,714,724,758,76,325,326,281,777,497,539,55,647,320,2,349,928,253,907,75,558,527,217,896,492,149,179,116,769,849,83,917,711,781,335,908,609,332,150,780,509,268,642,624,966,555,267,756,508,963,426,87,237,811,276,897,655,249,630,746,418,929,216,547,677,673,491,820,120,60,826,91,167,775,708,391,260,155,549,486,229,776,187,869,875,729,251,599,637,384,606,665,303,61,894,468,436,259,376,317,126,874,955,248,114,444,195,716,883,63,712,695,958,793,299,168,511,703,668,550,557,902,937,979,209,16,362,122,561,792,587,112,274,475,767,967,235,118,221,319,985,286,710,740,796,748,627,291,808,469,199,719,177,318,110,671,121,856,123,600,190,455,982,156,846,942,562,108,119,827,499,342,976,214,578,617,271,752,367,277,809,945,763,854,574,487,990,270,709,992,227,520,882,430,100,448,727,244,467,173,242,594,764,960,898,543,143,153,944,127,935,261,850,772,0,498,754,912,228,472,51,661,419,783,692,361,359,424,683,697,610,923,977,433,926,79,828,351,474,19,364,633,466,450,117,239,306,569,667,941,991,530,506,387,174,8,223,7,700,604,30,26,889,956,484,669,313,130,470,170,203,160,643,816,911,356,115,613,324,512,632,64,189,201,256,42,78,62,997,845,592,354,96,198,940,148,844,109,451,535,458,825,113,408,973,691,178,865,428,718,832,657,516,918,839,566,730,476,771,483,493,694,350,163,649,552,29,218,206,733,213,3,938,128,862,224,803,101,152,693,526,53,447,210,389,241,899,4,672,577,443,20,417,805,821,812,298,715,650,225,410,188,607,151,948,247,414,503,559,507,778,485,529,404,969,273,347,56,863,441,931,880,701,438,797,373,544,619,614,522,181,885,31,961,84,49,521,925,125,915,813,92,353,382,762,36,502,501,386,634,868,415,366,258,340,462,449,205,515,477,104,802,789,815,402,598,378,717,742,429,743,732,176,471,567,132,283,765,71,636,453,97,28,628,86,328,975,39,910,365,35,314,591,571,553,207,197,345,370,289,662,702,859,800,407,681,27,760,226,250,537,381,500,293,554]","arrowright","","true","0","16","133","1000","[""0033_N1000_K0133_NOCLIQUE"",""0076_N1000_K0133_CLIQUE""]"
"","","","","","audio-keyboard-response","82","199519","0.0-64.1-0.1-1.1","","null","audio_feedback/right/coin01.mp3","null","","","","","0","16","133","1000","[""0033_N1000_K0133_NOCLIQUE"",""0076_N1000_K0133_CLIQUE""]"
"","","","","","canvas-keyboard-response","83","206698","0.0-65.0-0.0-0.0","","6223",""," ","[19,222,913,599,231,114,155,130,72,153,676,644,374,237,733,749,802,198,178,730,498,39,508,851,276,778,65,14,236,348,240,843,299,911,32,447,474,10,834,373,246,485,632,903,179,775,140,93,324,947,491,697,353,461,898,893,943,614,347,557,549,322,875,107,806,852,538,995,606,319,89,27,94,312,646,437,259,691,419,695,214,38,760,674,409,336,298,340,67,786,442,221,817,938,301,233,55,441,143,224,420,880,220,253,85,318,824,364,914,344,701,265,761,621,500,304,871,436,256,211,397,311,209,308,372,326,762,764,365,539,586,803,475,626,428,687,282,493,689,776,731,124,768,162,371,268,9,24,779,418,359,560,686,625,260,306,349,56,7,939,633,512,699,774,942,591,964,869,653,966,426,225,185,707,755,532,758,668,782,457,894,901,679,141,142,351,874,808,781,702,217,150,950,399,974,476,501,648,777,627,464,423,254,92,291,971,407,232,571,848,358,448,655,34,387,398,915,563,889,2,577,719,283,535,251,847,543,980,11,924,378,565,816,948,403,205,404,522,716,316,849,172,823,424,375,602,275,615,443,135,661,242,567,204,953,281,613,788,12,835,706,389,677,390,313,593,641,123,744,540,956,754,578,200,794,465,226,337,780,790,741,287,263,770,619,892,293,177,325,363,46,49,690,785,368,433,533,75,804,551,234,132,411,87,245,320,658,640,273,341,944,873,572,452,622,255,951,637,822,638,726,30,489,486,379,832,180,684,261,483,47,343,659,711,868,547,138,983,708,355,763,527,17,152,879,100,134,45,285,579,833,181,766,203,197,541,745,738,127,50,600,338,900,160,59,249,573,115,862,223,594,597,270,831,382,190,669,757,480,294,828,199,70,819,561,683,907,108,269,303,624,865,826,52,370,992,35,151,905,885,909,332,642,60,64,22,829,289,987,41,509,175,972,866,102,43,366,604,805,639,675,605,264,896,494,383,735,81,514,888,459,37,736,542,645,5,670,713,219,728,345,545,568,506,173,590,230,425,752,315,998,15,870,297,662,592,201,643,137,435,841,978,727,709,705,176,284,765,149,700,356,478,657,977,536,985,29,361,288,84,165,518,751,589,83,936,360,410,608,961,698,274,811,611,559,109,581,854,801,71,445,555,13,996,807,166,117,257,471,507,44,767,161,323,759,189,859,919,827,562,357,649,462,933,385,650,877,367,159,858,988,8,346,718,558,434,454,393,890,439,431,630,596,492,552,723,836,960,902,678,125,98,742,118,25,317,656,955,693,789,917,513,897,413,904,997,169,528,144,523,516,876,884,954,791,247,157,548,881,969,194,666,154,846,886,930,546,663,853,421,430,737,79,601,553,952,470,314,422,310,196,414,797,440,867,810,458,973,216,740,497,682,753,148,16,62,982,412,815,369,488,792,814,402,715,267,756,534,61,116,6,580,329,192,818,73,158,887,821,584,838,182,76,463,607,544,427,386,350,976,139,612,564,652,354,362,394,482,968,456,787,857,446,712,511,813,743,33,228,451,671,455,229,837,967,26,104,734,912,106,286,850,845,40,926,384,566,66,990,595,305,469,931,309,628,184,680,4,174,279,704,957,36,746,395,290,932,481,53,186,984,502,940,537,460,296,328,429,292,191,981,812,126,872,119,610,588,334,170,520,327,773,965,747,333,391,78,432,878,400,830,495,468,496,218,63,899,681,717,515,3,202,796,860,660,120,105,215,863,921,408,90,244,490,928,342,750,694,163,1,444,164,937,21,48,609,994,121,210,991,466,238,946,405,235,95,111,620,487,352,188,979,696,784,388,883,688,724,415,258,722,479,243,895,147,416,929,473,524,934,241,145,300,772,122,575,295,999,647,918,720,554,207,739,525,864,484,136,587,396,112,131,113,945,910,193,923,339,51,417,795,582,280,673,331,651,809,970,302,58,213,721,0,714,99,472,505,882,975,250,80,617,195,23,925,519,156,799,271,685,664,168,272,618,958,183,28,171,530,521,18,376,941,603,69,771,634,855,631,277,103,793,667,504,920,167,212,88,570,725,710,146,266,949,574,262,248,906,82,840,321,908,916,748,252,208,959,449,839,510,629,467,526,330,820,438,665,101,616,861,844,672,477,654,503,68,856,133,307,392,206,77,825,20,96,623,692,963,381,74,91,401,635,377,583,769,729,529,54,57,585,31,576,129,128,110,531,842,703,989,517,891,800,499,993,962,97,986,380,550,406,239,450,598,935,636,569,798,927,922,556,42,86,278,187,335,732,453,783,227]","arrowleft","","","0","17","133","1000","[""0068_N1000_K0133_CLIQUE"",""0049_N1000_K0133_NOCLIQUE""]"
"","","","","","audio-keyboard-response","84","207978","0.0-65.0-0.0-1.0","","null","audio_feedback/shuffles/shuffle01.mp3","null","","","","","0","17","133","1000","[""0068_N1000_K0133_CLIQUE"",""0049_N1000_K0133_NOCLIQUE""]"
"","","","","","canvas-keyboard-response","85","216812","0.0-65.1-0.1-0.1","","7872","","arrowleft","[118,246,2,973,625,393,161,251,144,218,35,571,445,683,819,66,236,325,862,663,557,545,14,214,533,524,321,441,466,764,678,482,939,314,87,898,258,749,500,210,984,746,473,986,126,153,490,302,453,435,915,988,207,588,449,731,951,899,232,67,62,403,608,240,916,10,641,307,834,850,407,297,79,376,646,366,672,280,913,726,317,811,840,191,909,857,264,16,447,30,785,730,12,720,864,968,101,170,349,852,578,942,163,733,113,639,273,270,607,521,691,221,582,947,843,575,57,824,628,437,24,389,372,895,772,410,300,651,78,822,963,707,259,444,539,718,642,817,134,9,967,854,687,907,805,20,59,556,326,147,538,531,585,452,888,757,44,700,43,773,595,530,450,774,654,925,535,217,289,308,685,7,52,793,479,229,593,213,169,836,502,911,777,670,990,859,65,568,512,419,184,517,548,921,507,838,418,39,787,199,121,120,714,768,204,342,465,753,243,600,158,796,298,336,305,831,741,136,965,380,906,590,880,142,363,572,962,234,780,905,696,124,70,922,792,279,322,284,565,754,439,931,385,164,324,311,420,225,253,526,91,146,656,543,51,945,19,865,513,970,110,598,25,5,904,152,469,282,367,626,677,622,518,137,995,957,356,795,579,397,414,431,682,373,310,237,529,354,871,60,979,154,276,395,6,148,604,701,411,587,520,106,75,135,375,932,629,54,771,157,506,667,937,637,694,893,348,643,177,96,98,481,487,737,416,825,355,810,844,549,274,188,991,369,695,159,580,561,791,74,73,534,555,422,876,99,661,721,763,127,413,85,255,779,778,933,288,474,11,665,396,71,323,659,944,668,652,303,143,174,100,291,761,133,790,223,383,708,742,977,744,58,426,333,869,468,807,648,949,76,486,183,723,745,516,238,770,801,352,425,309,591,400,806,999,455,584,611,736,992,295,438,553,391,33,470,299,769,499,494,983,873,292,617,964,456,959,350,875,187,597,581,115,90,197,958,715,381,424,406,599,212,820,878,953,265,722,609,103,277,457,495,501,546,498,497,596,252,61,145,364,399,713,681,562,181,178,489,621,845,592,335,358,570,387,268,196,296,362,676,523,709,194,166,55,117,168,613,554,541,31,901,328,679,119,318,278,655,971,88,47,717,660,267,997,26,887,312,434,341,658,616,542,77,138,920,233,923,966,141,478,684,378,912,900,205,488,222,510,689,738,63,81,492,208,173,201,165,832,515,848,664,783,230,748,784,767,371,86,484,686,250,918,405,760,688,882,493,394,914,220,917,638,18,550,586,673,619,475,388,948,254,624,863,891,285,160,589,631,195,828,343,640,978,705,83,139,981,503,525,140,112,428,28,804,123,856,461,483,940,941,132,192,649,786,216,851,934,42,627,693,892,386,334,800,200,528,630,602,532,576,171,755,417,569,209,711,725,32,22,122,463,505,902,272,224,491,175,332,788,839,994,890,703,816,412,976,610,724,885,728,330,179,560,950,228,522,306,653,698,346,150,821,980,398,924,896,266,551,866,286,735,287,301,443,21,954,365,69,1,799,351,829,612,40,180,433,577,938,281,290,269,34,105,926,89,49,623,614,732,462,886,382,952,706,390,190,919,436,167,23,104,692,808,162,374,998,56,540,514,632,752,943,775,155,440,855,993,872,245,338,454,344,402,97,719,802,46,320,669,879,982,633,594,92,536,202,448,361,4,176,987,766,480,883,803,17,812,72,716,511,527,340,131,93,231,874,558,239,680,509,94,271,108,740,128,559,605,797,955,603,823,601,835,460,0,583,634,697,861,257,331,615,747,471,894,256,635,377,392,827,830,193,729,927,260,671,116,293,867,211,227,357,337,248,203,870,427,813,316,650,645,936,408,464,45,125,847,41,13,327,606,644,756,472,762,189,360,329,759,185,442,84,751,36,702,68,102,235,182,80,573,889,107,38,710,739,339,114,261,404,477,956,929,53,618,64,841,156,82,262,666,972,794,758,647,429,37,111,782,881,48,421,858,853,860,467,765,815,849,544,458,353,3,476,566,946,186,508,930,798,347,910,109,567,313,242,8,50,423,903,704,215,975,275,172,379,712,985,519,868,283,674,814,699,636,877,409,359,552,430,370,727,149,675,928,27,294,833,485,776,304,432,151,563,249,897,95,241,837,244,401,743,781,818,29,319,789,734,459,884,263,15,690,564,826,935,504,574,996,537,662,842,446,384,415,206,451,219,809,657,129,750,961,315,974,846,547,496,130,908,345,960,620,198,368,226,247,989,969]","arrowleft","","true","0","17","133","1000","[""0068_N1000_K0133_CLIQUE"",""0049_N1000_K0133_NOCLIQUE""]"
"","","","","","audio-keyboard-response","86","217998","0.0-65.1-0.1-1.1","","null","audio_feedback/right/coin01.mp3","null","","","","","0","17","133","1000","[""0068_N1000_K0133_CLIQUE"",""0049_N1000_K0133_NOCLIQUE""]"
