"success","timeout","failed_images","failed_audio","failed_video","trial_type","trial_index","time_elapsed","internal_node_id","view_history","rt","stimulus","response","nodes_order","correct_response","block_index","presentation_index","clique_size","graph_size","graphs_names","graphs_couple","accuracy"
"true","false","[]","[]","[]","preload","0","360","0.0-0.0","","","","","","","","","","","","",""
"","","","","","pavlovia","1","957","0.0-1.0","","","","","","","","","","","","",""
"","","","","","instructions","2","9888","0.0-2.0","[{""page_index"":0,""viewing_time"":7846},{""page_index"":1,""viewing_time"":1074}]","8920","","","","","","","","","","",""
"true","false","[]","[]","[]","preload","3","10669","0.0-3.0","","","","","","","","","","","","",""
"","","","","","instructions","4","201366","0.0-4.0","[{""page_index"":0,""viewing_time"":9073},{""page_index"":1,""viewing_time"":2203},{""page_index"":2,""viewing_time"":4285},{""page_index"":3,""viewing_time"":2919},{""page_index"":4,""viewing_time"":3437},{""page_index"":5,""viewing_time"":3947},{""page_index"":6,""viewing_time"":1304},{""page_index"":7,""viewing_time"":854},{""page_index"":8,""viewing_time"":1474},{""page_index"":9,""viewing_time"":1357},{""page_index"":10,""viewing_time"":1083},{""page_index"":11,""viewing_time"":2472},{""page_index"":12,""viewing_time"":2318},{""page_index"":13,""viewing_time"":2139},{""page_index"":14,""viewing_time"":1800},{""page_index"":15,""viewing_time"":1297},{""page_index"":16,""viewing_time"":1094},{""page_index"":17,""viewing_time"":764},{""page_index"":18,""viewing_time"":737},{""page_index"":19,""viewing_time"":2398},{""page_index"":20,""viewing_time"":1407},{""page_index"":21,""viewing_time"":1707},{""page_index"":22,""viewing_time"":2265},{""page_index"":23,""viewing_time"":1271},{""page_index"":24,""viewing_time"":1043},{""page_index"":25,""viewing_time"":890},{""page_index"":26,""viewing_time"":781},{""page_index"":27,""viewing_time"":13923},{""page_index"":28,""viewing_time"":5980},{""page_index"":29,""viewing_time"":2208},{""page_index"":30,""viewing_time"":635},{""page_index"":31,""viewing_time"":2713},{""page_index"":32,""viewing_time"":9055},{""page_index"":33,""viewing_time"":3995},{""page_index"":34,""viewing_time"":3610},{""page_index"":35,""viewing_time"":12180},{""page_index"":36,""viewing_time"":2530},{""page_index"":37,""viewing_time"":2958},{""page_index"":38,""viewing_time"":2038},{""page_index"":39,""viewing_time"":2659},{""page_index"":40,""viewing_time"":2049},{""page_index"":41,""viewing_time"":2305},{""page_index"":42,""viewing_time"":3368},{""page_index"":43,""viewing_time"":15665},{""page_index"":44,""viewing_time"":11108},{""page_index"":45,""viewing_time"":16050},{""page_index"":46,""viewing_time"":846},{""page_index"":45,""viewing_time"":8891},{""page_index"":46,""viewing_time"":1612},{""page_index"":47,""viewing_time"":2244},{""page_index"":48,""viewing_time"":3777},{""page_index"":49,""viewing_time"":965},{""page_index"":50,""viewing_time"":709},{""page_index"":51,""viewing_time"":303}]","190695","","","","","","","","","","",""
"","","","","","instructions","5","202976","0.0-5.0","[{""page_index"":0,""viewing_time"":1608}]","1609","","","","","","","","","","",""
"true","false","[]","[]","[]","preload","6","204176","0.0-6.0","","","","","","","","","","","","",""
"","","","","","image-keyboard-response","7","218870","0.0-7.0","","14642","tutorial/task_familiarization_images/part 1/01_N160_K90_cliqueRight_question1.PNG"," ","","","","","","","","",""
"","","","","","image-keyboard-response","8","220793","0.0-8.0","","1896","tutorial/task_familiarization_images/part 1/02_N160_K90_cliqueRight_question2.PNG"," ","","","","","","","","",""
"","","","","","image-keyboard-response","9","235570","0.0-9.0","","14756","tutorial/task_familiarization_images/part 1/03_N160_K90_cliqueRight_question3.PNG","arrowright","","","","","","","","",""
"","","","","","image-keyboard-response","10","236830","0.0-10.0","","1240","tutorial/task_familiarization_images/part 1/04_N160_K90_cliqueRight_solution.PNG"," ","","","","","","","","",""
"","","","","","image-keyboard-response","11","239919","0.0-11.0","","3069","tutorial/task_familiarization_images/part 1/05_N160_K65_cliqueRight_question1.PNG"," ","","","","","","","","",""
"","","","","","image-keyboard-response","12","241547","0.0-12.0","","1608","tutorial/task_familiarization_images/part 1/06_N160_K65_cliqueRight_question2.PNG"," ","","","","","","","","",""
"","","","","","image-keyboard-response","13","242336","0.0-13.0","","770","tutorial/task_familiarization_images/part 1/07_N160_K65_cliqueRight_question3.PNG","arrowright","","","","","","","","",""
"","","","","","image-keyboard-response","14","246267","0.0-14.0","","3912","tutorial/task_familiarization_images/part 1/08_N160_K65_cliqueRight_solution.PNG"," ","","","","","","","","",""
"","","","","","image-keyboard-response","15","248463","0.0-15.0","","2160","tutorial/task_familiarization_images/part 1/09_N160_K50_cliqueLeft_question1.PNG"," ","","","","","","","","",""
"","","","","","image-keyboard-response","16","249759","0.0-16.0","","1273","tutorial/task_familiarization_images/part 1/10_N160_K50_cliqueLeft_question2.PNG"," ","","","","","","","","",""
"","","","","","image-keyboard-response","17","252708","0.0-17.0","","2926","tutorial/task_familiarization_images/part 1/11_N160_K50_cliqueLeft_question3.PNG","arrowright","","","","","","","","",""
"","","","","","image-keyboard-response","18","254297","0.0-18.0","","1564","tutorial/task_familiarization_images/part 1/12_N160_K50_cliqueLeft_solution.PNG"," ","","","","","","","","",""
"","","","","","image-keyboard-response","19","256555","0.0-19.0","","2234","tutorial/task_familiarization_images/part 1/13_N160_K80_cliqueLeft_question1.PNG"," ","","","","","","","","",""
"","","","","","image-keyboard-response","20","257359","0.0-20.0","","778","tutorial/task_familiarization_images/part 1/14_N160_K80_cliqueLeft_question2.PNG"," ","","","","","","","","",""
"","","","","","image-keyboard-response","21","258019","0.0-21.0","","635","tutorial/task_familiarization_images/part 1/15_N160_K80_cliqueLeft_question3.PNG","arrowleft","","","","","","","","",""
"","","","","","image-keyboard-response","22","258841","0.0-22.0","","799","tutorial/task_familiarization_images/part 1/16_N160_K80_cliqueLeft_solution.PNG"," ","","","","","","","","",""
"","","","","","image-keyboard-response","23","260587","0.0-23.0","","1724","tutorial/task_familiarization_images/part 1/17_N160_K40_cliqueRight_question1.PNG"," ","","","","","","","","",""
"","","","","","image-keyboard-response","24","261584","0.0-24.0","","975","tutorial/task_familiarization_images/part 1/18_N160_K40_cliqueRight_question2.PNG"," ","","","","","","","","",""
"","","","","","image-keyboard-response","25","263170","0.0-25.0","","1567","tutorial/task_familiarization_images/part 1/19_N160_K40_cliqueRight_question3.PNG","arrowright","","","","","","","","",""
"","","","","","image-keyboard-response","26","263663","0.0-26.0","","465","tutorial/task_familiarization_images/part 1/20_N160_K40_cliqueRight_solution.PNG"," ","","","","","","","","",""
"","","","","","image-keyboard-response","27","265112","0.0-27.0","","1423","tutorial/task_familiarization_images/part 1/21_N160_K70_cliqueLeft_question1.PNG"," ","","","","","","","","",""
"","","","","","image-keyboard-response","28","267080","0.0-28.0","","1949","tutorial/task_familiarization_images/part 1/22_N160_K70_cliqueLeft_question2.PNG"," ","","","","","","","","",""
"","","","","","image-keyboard-response","29","267811","0.0-29.0","","706","tutorial/task_familiarization_images/part 1/23_N160_K70_cliqueLeft_question3.PNG","arrowleft","","","","","","","","",""
"","","","","","image-keyboard-response","30","268205","0.0-30.0","","370","tutorial/task_familiarization_images/part 1/24_N160_K70_cliqueLeft_solution.PNG"," ","","","","","","","","",""
"true","false","[]","[]","[]","preload","31","269199","0.0-31.0","","","","","","","","","","","","",""
"","","","","","image-keyboard-response","32","272104","0.0-32.0","","2861","tutorial/task_familiarization_images/part 2/01_160_80_cliqueLeft_withFeedback_1.PNG"," ","","","","","","","","",""
"","","","","","image-keyboard-response","33","272785","0.0-33.0","","645","tutorial/task_familiarization_images/part 2/02_160_80_cliqueLeft_withFeedback_1.PNG"," ","","","","","","","","",""
"","","","","","image-keyboard-response","34","275664","0.0-34.0","","2836","tutorial/task_familiarization_images/part 2/03_160_80_cliqueLeft_withFeedback_3.PNG","arrowleft","","","","","","","","",""
"","","","","","image-keyboard-response","35","276702","0.0-35.0","","1001","tutorial/task_familiarization_images/part 2/04_160_80_cliqueLeft_withFeedback_correct.PNG"," ","","","","","","","","",""
"","","","","","image-keyboard-response","36","280381","0.0-36.0","","3639","tutorial/task_familiarization_images/part 2/05_160_55_cliqueRight_withFeedback_1.PNG"," ","","","","","","","","",""
"","","","","","image-keyboard-response","37","281639","0.0-37.0","","1218","tutorial/task_familiarization_images/part 2/06_160_55_cliqueRight_withFeedback_2.PNG"," ","","","","","","","","",""
"","","","","","image-keyboard-response","38","282209","0.0-38.0","","533","tutorial/task_familiarization_images/part 2/07_160_55_cliqueRight_withFeedback_3.PNG","arrowright","","","","","","","","",""
"","","","","","image-keyboard-response","39","282690","0.0-39.0","","443","tutorial/task_familiarization_images/part 2/08_160_55_cliqueRight_withFeedback_correct.PNG"," ","","","","","","","","",""
"","","","","","image-keyboard-response","40","287610","0.0-40.0","","4884","tutorial/task_familiarization_images/part 2/09_160_70_cliqueLeft_withFeedback_1.PNG"," ","","","","","","","","",""
"","","","","","image-keyboard-response","41","288425","0.0-41.0","","779","tutorial/task_familiarization_images/part 2/10_160_70_cliqueLeft_withFeedback_2.PNG"," ","","","","","","","","",""
"","","","","","image-keyboard-response","42","289254","0.0-42.0","","789","tutorial/task_familiarization_images/part 2/11_160_70_cliqueLeft_withFeedback_3.PNG","arrowleft","","","","","","","","",""
"","","","","","image-keyboard-response","43","291458","0.0-43.0","","2170","tutorial/task_familiarization_images/part 2/12_160_70_cliqueLeft_withFeedback_correct.PNG"," ","","","","","","","","",""
"","","","","","survey-html-form","44","297019","0.0-44.0","","5559","","{""gender"":""female"",""age"":""28""}","","","","","","","","",""
"","","","","","instructions","45","298652","0.0-45.0","[{""page_index"":0,""viewing_time"":1631}]","1631","","","","","","","","","","",""
"true","","","","","fullscreen","46","301641","0.0-47.0","","","","","","","","","","","","",""
"","","","","","canvas-keyboard-response","47","303381","0.0-48.0-0.0-0.0","","7",""," ","[2,584,604,970,602,949,309,646,472,134,716,125,594,17,58,30,466,261,439,100,138,433,640,90,863,694,240,952,301,850,767,925,214,962,989,188,210,276,148,35,488,233,388,392,198,771,784,527,218,449,350,810,390,239,31,575,61,659,295,199,975,456,147,483,821,887,803,96,8,235,730,746,699,379,104,958,477,564,586,872,769,707,4,796,502,409,637,254,665,824,360,818,429,715,717,52,910,945,108,517,895,302,464,3,849,758,296,934,794,311,523,632,946,781,177,522,382,32,982,22,548,157,633,660,479,271,800,506,898,724,59,885,103,618,812,133,99,119,713,213,875,533,161,519,721,561,705,948,362,939,959,380,122,573,550,622,471,366,642,367,676,152,394,752,617,155,830,450,55,657,841,643,66,834,629,374,607,585,358,166,829,884,248,854,445,620,679,395,963,619,723,843,363,70,36,418,67,173,789,250,862,149,634,900,9,359,341,966,507,805,554,28,905,54,899,702,768,833,454,880,219,552,844,922,473,321,718,153,443,121,870,530,170,663,255,437,985,169,474,270,780,361,621,378,249,481,686,853,508,876,537,757,21,571,262,498,326,217,377,290,42,492,890,375,684,468,71,541,499,372,692,680,668,422,709,965,765,652,57,27,512,47,998,44,688,606,130,212,135,535,801,874,825,323,442,421,712,265,649,325,720,706,340,216,916,943,292,888,896,351,387,324,978,86,547,391,19,592,711,991,287,936,667,51,191,759,754,933,105,143,837,687,288,518,877,811,202,866,879,482,182,64,201,696,556,383,123,897,399,520,785,600,48,281,960,859,207,924,386,417,257,154,491,420,555,858,224,496,297,901,559,181,539,828,886,569,314,241,68,909,484,10,434,145,635,283,206,971,926,242,852,578,772,176,639,186,961,840,215,476,942,269,714,674,43,243,944,950,783,127,277,384,307,109,327,815,987,747,761,793,655,937,208,597,453,320,342,228,681,860,106,162,704,280,579,591,882,921,974,881,356,992,95,151,258,194,440,478,737,516,917,128,137,289,159,407,116,631,531,185,753,871,675,798,467,97,396,940,856,272,528,623,480,129,203,918,94,562,979,497,79,913,237,29,515,763,742,813,762,403,521,673,976,25,415,38,764,6,69,614,678,743,26,553,544,401,82,566,701,823,381,903,107,87,907,626,304,412,953,703,432,370,809,509,353,50,444,306,245,983,291,582,345,538,984,612,303,848,150,630,797,588,616,842,804,223,610,529,184,919,636,334,101,16,118,836,956,831,968,230,158,331,263,873,906,339,878,542,330,196,187,563,315,322,76,999,664,49,698,1,902,947,405,37,791,197,729,611,268,24,88,505,915,80,993,172,994,475,760,485,369,190,447,78,931,14,136,141,398,929,570,168,911,513,514,671,15,851,385,167,647,857,244,912,72,656,807,156,98,504,411,682,333,599,500,232,455,864,777,222,690,838,710,344,458,839,808,651,355,146,558,259,920,603,601,465,231,53,977,495,406,349,462,577,402,337,904,644,595,745,397,316,534,441,549,750,997,788,727,140,510,572,988,883,419,782,89,294,275,525,986,225,486,114,174,526,229,816,220,894,299,691,278,973,413,364,336,18,282,34,941,826,376,503,305,348,744,598,63,425,0,368,627,954,511,160,192,171,448,532,748,672,654,893,45,799,113,927,817,234,13,227,446,12,335,83,252,666,889,648,589,300,20,891,645,700,524,641,779,200,560,317,806,319,738,749,400,981,124,416,551,11,955,284,734,131,557,279,180,183,451,932,460,144,357,969,855,285,628,832,908,120,251,865,722,546,938,73,469,46,164,452,346,670,338,470,923,195,581,574,756,126,256,892,847,23,543,332,650,590,117,312,110,60,775,438,267,430,238,373,142,615,435,93,84,62,329,669,736,246,732,111,773,318,613,996,778,493,343,774,490,795,658,625,193,827,487,770,65,861,165,56,951,967,835,428,431,371,867,293,536,40,685,935,540,81,286,819,85,92,365,845,132,928,389,580,236,221,624,102,354,393,226,352,653,461,972,990,501,313,822,489,310,457,7,175,408,708,980,404,689,204,247,786,790,957,609,869,112,74,298,739,792,427,423,328,661,5,253,179,211,568,587,205,260,964,567,593,726,596,463,39,733,776,608,605,695,677,725,740,264,787,683,741,414,410,638,266,755,820,846,583,347,209,545,719,751,930,802,576,728,697,766,75,914,459,424,693,995,163,77,868,662,814,426,139,33,494,41,735,274,731,436,178,308,115,91,565,273,189]","arrowright","0","0","300","1000","[""0002_N1000_K0300_NOCLIQUE"",""0012_N1000_K0300_CLIQUE""]","",""
"","","","","","audio-keyboard-response","48","304751","0.0-48.0-0.0-1.0","","null","audio_feedback/shuffles/shuffle01.mp3","null","","","0","0","300","1000","[""0002_N1000_K0300_NOCLIQUE"",""0012_N1000_K0300_CLIQUE""]","",""
"","","","","","canvas-keyboard-response","49","319481","0.0-48.1-0.1-0.1","","13080",""," ","[506,397,800,982,859,417,595,867,631,449,328,236,250,680,252,969,480,224,376,559,274,178,674,255,886,534,94,85,932,45,656,371,91,841,302,50,573,388,733,383,587,903,168,592,876,129,700,151,439,684,63,140,41,163,490,623,707,693,469,76,898,815,998,261,619,543,511,519,710,8,695,317,775,381,312,716,981,405,992,654,373,854,900,708,550,215,196,36,794,430,820,326,176,525,128,389,228,458,743,855,769,241,602,816,300,881,303,428,263,409,390,39,65,186,966,849,356,687,452,723,61,943,201,501,465,216,785,28,120,776,311,78,882,485,30,865,690,814,640,927,354,745,795,73,161,561,844,437,751,660,542,838,21,907,321,526,538,418,948,210,603,808,692,718,333,393,401,637,583,290,709,367,442,724,893,991,309,796,325,170,230,979,362,146,875,440,117,112,520,608,419,44,104,952,22,498,616,23,737,114,221,803,169,696,332,237,659,33,484,191,612,110,5,946,888,962,74,600,528,715,978,597,37,671,694,286,257,804,729,996,214,518,505,572,189,473,704,738,412,471,43,394,155,386,626,884,18,456,171,403,474,320,486,68,336,759,596,741,462,806,906,479,926,857,931,773,202,288,318,56,641,124,873,406,555,229,878,678,837,359,424,864,227,591,540,607,915,575,194,826,949,569,60,204,206,357,253,655,848,305,144,347,222,450,248,668,877,183,676,889,749,885,192,965,879,25,153,150,691,645,912,914,632,102,329,722,902,790,890,324,726,604,106,556,916,529,731,577,669,799,478,988,267,280,470,582,494,457,845,677,670,118,699,793,89,284,66,31,455,211,809,721,823,341,42,365,148,162,905,258,553,282,527,541,132,657,254,766,198,685,771,107,706,899,974,223,207,166,181,55,779,842,683,560,964,858,568,382,301,513,727,345,0,937,157,86,468,574,249,200,29,662,143,768,732,32,53,209,547,136,963,264,20,960,856,38,447,521,754,316,298,935,629,777,435,778,429,265,750,944,26,860,646,239,999,331,742,407,891,476,245,610,758,355,256,507,866,558,666,426,615,939,760,924,818,995,358,812,278,273,212,744,115,910,753,736,79,133,113,246,920,459,611,270,625,681,116,571,531,993,226,292,967,58,613,121,281,96,46,925,251,141,340,421,517,122,425,27,614,765,438,950,636,797,739,127,834,653,817,375,503,827,713,956,843,360,350,1,767,546,746,509,752,416,88,825,262,846,987,175,635,586,80,11,10,892,763,463,658,177,499,570,883,3,675,524,934,314,652,423,259,431,839,205,772,72,747,134,466,446,475,111,617,342,434,580,2,99,650,554,917,938,126,955,9,339,242,831,444,12,240,874,235,414,75,522,701,782,717,279,919,869,82,564,958,986,432,989,682,310,84,829,921,953,922,173,346,233,688,734,792,49,238,392,220,968,306,289,219,481,92,461,396,380,244,319,502,14,970,895,415,634,762,863,193,35,783,686,272,563,313,983,154,579,364,464,810,609,190,410,705,7,665,197,496,232,942,702,491,62,402,832,343,260,628,535,83,308,377,578,994,593,971,482,933,363,622,203,801,15,234,703,784,330,467,508,361,408,54,642,404,67,366,588,185,51,139,103,730,798,532,304,353,493,370,297,95,862,165,756,180,894,24,788,720,601,90,802,740,904,853,277,714,283,936,929,195,271,327,433,565,639,851,188,533,536,379,811,184,337,770,774,985,830,16,537,149,698,125,145,789,689,748,605,941,147,510,551,972,852,395,887,918,477,945,557,633,523,599,135,293,266,243,100,299,975,980,728,420,679,413,930,712,349,167,581,179,868,172,516,661,391,764,552,514,973,663,64,791,160,492,880,909,453,322,807,643,606,567,755,268,372,101,621,901,947,217,225,48,97,387,436,833,411,472,276,98,13,504,584,872,624,422,443,780,497,6,182,672,539,638,954,369,269,441,81,174,351,984,589,87,957,847,384,315,483,57,959,451,835,156,344,123,620,374,137,40,275,562,576,757,897,719,598,940,460,761,566,487,109,594,448,667,923,805,781,335,630,142,152,454,378,928,544,711,977,352,59,295,385,735,323,673,697,648,590,787,368,93,651,307,644,294,17,997,495,105,819,52,34,164,77,961,549,69,138,218,208,990,813,70,824,627,71,664,158,119,911,861,500,398,489,545,828,512,548,976,618,840,131,427,530,199,822,247,951,47,213,108,896,871,4,231,399,400,913,130,585,348,870,821,647,445,334,296,649,515,19,786,285,725,291,908,488,338,159,836,187,850,287]","arrowright","0","0","300","1000","[""0002_N1000_K0300_NOCLIQUE"",""0012_N1000_K0300_CLIQUE""]","",""
"","","","","","audio-keyboard-response","50","320853","0.0-48.1-0.1-1.1","","null","audio_feedback/shuffles/shuffle01.mp3","null","","","0","0","300","1000","[""0002_N1000_K0300_NOCLIQUE"",""0012_N1000_K0300_CLIQUE""]","",""
"","","","","","canvas-keyboard-response","51","322434","0.0-48.2-0.2-0.2","","1","","arrowright","[50,209,558,16,923,571,196,447,141,827,502,121,540,480,356,988,105,178,134,497,377,778,185,108,944,100,688,387,662,816,114,565,570,590,895,225,691,715,614,311,203,795,102,478,580,25,96,544,410,698,900,210,156,342,332,970,360,881,920,642,87,712,554,568,18,684,627,494,385,12,207,977,704,93,746,849,599,762,886,748,214,530,507,180,529,645,520,75,198,766,364,888,552,829,31,693,700,371,843,587,633,508,80,939,76,622,283,456,941,279,186,621,925,951,528,696,242,952,231,95,94,851,463,887,101,961,976,151,55,820,860,201,868,834,610,446,553,373,469,250,752,82,219,217,460,718,916,837,256,673,64,352,651,268,666,113,772,432,697,23,773,647,277,602,11,367,79,650,406,496,44,906,475,390,449,917,535,345,216,729,33,4,419,85,566,631,164,690,534,5,281,472,171,848,81,421,503,644,394,713,333,329,45,775,106,67,586,355,838,142,694,960,929,331,943,297,780,538,675,858,492,735,376,734,495,810,626,750,707,521,517,363,523,714,556,901,926,491,153,42,438,236,464,19,147,573,919,612,711,911,726,223,62,482,486,811,187,559,950,293,853,623,289,739,933,192,258,679,73,668,782,380,608,97,532,174,7,981,418,893,539,458,6,316,46,685,411,625,545,181,689,742,499,334,310,211,928,457,738,758,145,195,783,169,978,658,369,826,671,966,630,569,291,876,927,57,924,232,92,340,628,378,382,392,890,8,63,579,99,575,41,793,384,616,996,140,527,515,184,350,288,672,254,518,337,800,206,484,533,980,398,144,818,802,670,938,485,613,403,190,956,797,615,221,506,619,26,504,871,560,292,973,124,481,706,639,945,682,249,344,191,324,226,183,366,351,912,832,368,759,444,35,152,259,119,37,335,674,21,883,760,899,862,592,903,567,653,526,445,987,595,959,149,220,271,284,965,687,326,270,589,49,618,664,112,638,861,896,48,617,686,129,531,874,828,408,146,563,470,43,983,583,15,194,161,193,501,678,993,253,786,591,115,844,158,423,728,66,404,695,852,69,598,318,744,301,809,830,543,90,790,59,995,126,879,974,455,349,261,34,632,440,2,701,213,483,163,922,737,884,272,123,705,524,654,407,732,727,155,755,476,717,136,137,964,902,359,165,880,519,313,904,582,65,103,847,132,620,10,910,9,652,576,550,510,172,138,150,230,731,433,179,305,609,842,894,248,637,767,427,963,962,424,914,814,574,224,725,548,720,915,386,328,864,267,667,74,111,891,439,723,921,513,932,257,252,490,197,238,994,624,235,757,400,375,117,875,286,319,168,908,431,846,175,716,660,768,955,724,98,812,264,88,606,320,200,551,561,38,315,60,514,396,745,157,300,787,500,282,736,489,805,721,133,263,413,295,850,659,416,89,516,306,555,78,646,262,441,474,677,756,840,443,770,948,303,931,813,601,692,541,453,774,208,488,462,819,399,251,287,581,420,72,947,70,794,600,61,719,788,635,918,435,346,14,51,936,751,189,740,709,245,940,907,898,669,493,409,547,426,831,749,176,823,13,821,222,273,629,381,855,54,127,307,913,240,436,341,676,265,237,997,815,946,798,53,979,467,228,428,585,361,776,681,309,241,833,972,557,173,885,869,546,347,461,473,260,872,388,806,0,77,764,422,314,290,325,391,892,710,935,182,266,549,40,969,358,597,379,395,276,354,572,401,68,836,130,578,702,166,641,791,761,454,389,863,835,372,703,957,937,779,991,417,985,975,817,878,856,505,459,304,796,999,188,442,116,122,754,845,339,353,564,949,905,511,784,656,52,280,611,370,607,537,212,22,84,747,322,86,202,298,866,708,107,412,215,1,865,135,131,229,801,643,321,336,741,32,649,110,451,877,808,512,109,594,374,640,247,20,177,296,429,471,648,982,405,323,255,56,525,218,39,397,789,362,584,522,542,233,154,348,799,733,722,683,857,330,338,804,118,128,636,450,160,343,170,954,243,854,986,792,275,822,308,415,934,562,634,753,807,29,577,125,839,402,803,17,998,953,204,357,665,227,769,604,743,603,466,777,24,873,159,536,992,785,425,657,990,958,244,312,509,889,897,699,393,104,47,278,36,930,663,596,434,299,234,27,825,71,448,327,3,968,167,771,765,498,294,989,205,479,859,971,148,28,274,824,841,139,58,162,593,661,942,452,763,269,383,239,83,246,317,120,867,477,143,468,870,414,680,437,909,967,984,882,588,91,605,30,285,655,730,199,781,430,302,465,365,487]","arrowright","0","0","300","1000","[""0002_N1000_K0300_NOCLIQUE"",""0012_N1000_K0300_CLIQUE""]","","true"
"","","","","","audio-keyboard-response","52","323654","0.0-48.2-0.2-1.2","","null","audio_feedback/right/coin01.mp3","null","","","0","0","300","1000","[""0002_N1000_K0300_NOCLIQUE"",""0012_N1000_K0300_CLIQUE""]","",""
"","","","","","canvas-keyboard-response","53","333755","0.0-49.0-0.0-0.0","","8547",""," ","[515,921,549,870,330,499,878,905,231,322,644,402,317,285,110,340,196,668,399,448,795,714,67,98,463,887,543,665,719,777,291,885,778,550,320,592,375,126,610,40,198,839,991,71,759,390,990,578,494,779,420,881,683,945,880,407,480,167,523,889,559,742,873,616,686,729,997,312,732,38,311,45,405,790,651,484,798,922,679,823,522,502,816,513,229,323,295,666,487,678,60,763,662,939,914,837,152,191,685,241,853,254,433,115,343,587,332,123,348,345,131,145,555,781,327,252,246,70,248,194,507,146,453,834,426,558,203,828,365,138,468,31,717,174,223,221,214,696,129,574,493,705,895,42,470,409,658,760,114,824,53,899,316,829,306,329,294,192,201,961,181,924,333,304,551,561,611,867,163,980,265,5,925,519,111,654,751,204,172,998,50,838,431,978,173,408,721,500,124,14,537,936,681,220,127,94,597,789,821,199,62,92,957,264,195,648,756,585,347,7,534,228,856,299,169,178,141,984,835,49,455,483,725,309,105,73,852,8,0,18,287,913,148,117,182,17,79,41,68,911,893,44,452,81,205,940,879,702,267,747,812,270,325,166,485,446,865,859,293,825,630,328,981,282,418,318,137,466,586,976,460,874,603,385,703,761,498,605,380,805,833,212,731,85,504,9,675,454,602,439,273,438,416,888,669,995,919,854,367,667,982,488,999,391,849,86,782,768,737,617,977,892,458,315,514,473,688,864,535,119,415,556,496,475,638,794,326,508,450,886,538,625,640,32,521,153,130,366,915,336,90,942,140,970,525,55,593,100,429,3,776,103,160,773,74,21,772,359,722,505,506,530,441,449,404,726,150,2,78,600,361,121,394,564,840,637,335,875,670,28,986,107,238,13,430,780,801,848,699,305,324,529,952,424,902,958,810,207,959,422,95,757,563,417,909,723,858,225,244,694,464,268,189,923,428,531,918,660,274,652,832,106,442,239,314,872,800,842,645,440,52,276,313,596,382,916,860,552,588,501,479,298,120,58,27,577,87,297,247,352,30,362,962,766,741,224,396,510,844,300,16,594,917,175,108,774,481,963,979,965,22,897,590,139,745,627,855,48,641,190,797,568,735,804,23,308,432,180,548,709,414,512,769,435,518,554,877,77,536,381,595,179,791,948,277,89,310,604,511,635,904,545,91,186,209,436,474,565,206,690,927,263,524,608,541,136,24,158,144,20,351,946,227,162,171,208,286,601,356,677,128,389,251,822,820,168,533,542,197,113,618,628,673,749,767,883,200,242,183,383,371,584,12,847,257,262,906,492,372,631,969,528,876,689,672,272,296,624,444,622,233,557,784,378,953,339,184,271,928,802,562,289,639,996,987,486,266,26,259,477,284,321,912,188,647,37,279,303,755,88,994,374,497,676,6,708,643,469,634,143,476,275,39,400,176,412,96,621,655,826,387,573,369,59,358,680,350,132,728,72,569,967,151,931,941,813,589,65,425,213,43,846,75,232,972,960,882,237,547,695,582,560,933,866,245,612,490,736,280,170,447,786,427,154,891,633,532,576,256,360,606,202,583,771,750,116,743,379,993,288,25,216,445,809,443,650,82,890,819,373,614,646,806,908,711,581,384,807,465,109,764,368,61,843,992,269,230,803,857,397,211,974,758,236,954,33,799,467,177,34,966,478,357,871,544,947,693,63,811,47,104,746,461,419,413,434,656,99,398,118,76,377,437,210,342,964,281,985,83,862,520,983,765,572,898,989,253,334,739,787,102,869,112,370,319,944,687,403,727,949,988,671,472,509,713,261,462,161,815,920,831,57,710,495,609,629,900,19,591,456,546,599,553,626,278,956,901,926,653,539,903,752,818,620,707,84,636,570,968,157,715,716,700,423,410,792,785,35,580,482,346,733,349,142,868,10,147,619,1,135,571,863,841,69,861,775,682,187,730,364,471,217,814,770,489,219,827,240,910,701,697,663,46,615,788,97,754,817,527,388,720,740,4,355,951,698,122,540,155,613,218,235,674,258,851,457,884,659,734,579,93,156,51,712,684,234,249,738,930,401,661,642,250,354,243,133,491,937,36,301,894,748,11,793,459,929,406,955,783,575,845,411,943,724,185,80,134,222,830,503,302,632,56,101,307,149,363,29,255,64,704,376,66,938,337,796,421,283,344,623,164,692,850,935,907,338,762,15,517,607,896,744,125,292,808,598,226,516,973,975,526,691,290,566,932,215,331,260,934,971,193,836,567,165,753,649,395,392,718,54,159,393,706,341,664,353,451,950,657,386]","arrowright","0","1","300","1000","[""0011_N1000_K0300_NOCLIQUE"",""0074_N1000_K0300_CLIQUE""]","",""
"","","","","","audio-keyboard-response","54","335131","0.0-49.0-0.0-1.0","","null","audio_feedback/shuffles/shuffle01.mp3","null","","","0","1","300","1000","[""0011_N1000_K0300_NOCLIQUE"",""0074_N1000_K0300_CLIQUE""]","",""
"","","","","","canvas-keyboard-response","55","336757","0.0-49.1-0.1-0.1","","0",""," ","[791,971,225,183,382,558,263,8,65,309,906,281,445,494,601,541,495,338,607,444,123,165,227,597,89,104,403,409,148,317,963,555,423,384,981,366,862,652,605,269,635,398,346,928,354,377,576,124,867,566,131,223,15,257,931,936,912,375,505,135,978,200,410,776,696,483,522,664,886,612,913,68,196,988,983,369,909,446,333,326,388,714,970,940,708,718,565,337,44,70,455,562,500,959,76,230,524,537,793,707,663,527,899,406,910,771,657,726,56,954,69,241,212,618,828,712,482,649,854,378,321,411,152,773,525,660,272,303,11,292,100,796,564,186,112,758,166,885,6,474,939,279,189,894,1,95,364,193,80,174,700,713,737,672,24,593,629,139,623,208,66,178,571,391,976,504,683,594,539,840,243,295,310,606,923,487,645,177,986,128,217,671,803,460,91,153,387,252,493,415,297,677,77,534,216,839,667,43,695,72,181,547,324,111,578,961,304,792,647,18,609,427,529,900,268,137,825,162,615,972,901,789,893,669,143,117,643,244,156,530,811,947,946,621,25,41,632,896,71,721,650,353,544,226,132,34,984,876,918,732,929,852,418,419,468,399,949,561,357,27,85,356,964,654,630,218,440,535,538,932,110,251,595,868,87,948,559,829,300,699,386,513,426,202,515,38,686,140,895,39,145,159,934,215,416,904,536,278,613,965,786,359,994,810,706,420,921,614,45,431,430,925,967,864,633,710,173,682,341,5,608,456,550,857,264,917,404,363,826,221,830,523,698,479,273,603,658,784,437,834,590,846,58,960,520,850,790,180,232,308,837,461,16,546,245,9,727,883,228,328,511,465,107,589,334,933,685,935,540,781,742,125,262,146,813,51,655,48,638,396,452,878,688,10,532,518,631,853,288,783,319,992,204,238,554,191,74,733,220,182,237,370,316,133,919,330,62,253,849,158,736,882,746,870,448,160,751,30,175,804,31,860,785,126,114,248,502,797,512,491,666,138,93,233,134,575,88,120,799,383,113,211,402,722,256,453,86,725,97,735,291,167,506,101,376,709,213,731,519,365,488,995,924,747,129,478,552,477,816,59,94,231,628,691,819,798,266,90,312,345,531,7,777,805,705,760,801,255,743,20,433,730,979,219,768,472,75,782,290,67,795,280,168,855,835,214,841,21,275,526,320,394,362,646,151,194,599,975,661,560,314,966,821,641,549,499,305,467,4,662,22,744,717,856,441,831,285,997,413,865,294,577,573,624,989,767,348,838,259,869,349,489,322,102,543,466,432,327,457,999,392,106,141,772,205,874,741,943,118,950,769,922,352,421,985,19,184,750,832,55,302,942,78,890,12,429,498,73,29,889,136,335,634,973,993,176,318,734,49,274,568,877,412,510,611,224,697,873,911,690,637,438,289,802,673,625,748,40,201,503,956,0,301,548,815,222,470,675,52,92,847,342,553,563,636,154,872,551,197,842,147,880,891,848,109,47,130,779,33,450,728,434,380,622,761,892,969,787,417,759,788,240,2,604,507,462,83,765,703,689,283,704,620,545,458,584,343,875,808,752,179,739,516,422,475,116,766,492,694,916,149,533,843,962,812,556,13,642,265,372,164,866,582,473,600,585,616,169,355,408,163,315,323,284,719,715,229,753,142,50,368,480,871,833,82,859,108,144,897,53,958,567,373,96,996,987,517,332,926,485,780,574,723,861,588,774,770,668,764,207,250,405,598,640,311,702,390,569,711,745,360,617,414,481,991,325,23,451,84,122,235,845,374,898,401,951,276,514,938,757,32,379,818,358,435,449,339,809,800,393,267,720,351,659,277,497,172,794,447,982,469,521,385,187,254,680,454,471,26,307,570,14,105,98,684,155,665,887,968,161,37,296,602,190,749,824,817,115,980,395,336,99,119,199,851,271,79,879,778,329,679,246,820,903,28,210,442,756,260,542,693,881,653,580,476,957,724,823,944,331,192,888,858,198,42,509,258,306,806,490,920,407,974,927,64,627,35,902,528,572,361,242,347,150,930,185,508,762,648,692,46,17,397,36,670,443,952,282,188,763,389,579,610,203,293,701,977,754,439,209,587,738,775,644,286,239,592,905,676,822,591,261,60,299,340,814,350,428,121,937,371,941,596,955,496,827,557,298,61,914,464,486,367,884,863,583,381,157,206,81,249,915,953,687,287,674,998,501,945,484,740,990,3,626,127,400,234,57,270,425,651,716,463,581,247,54,844,681,171,678,63,313,836,908,586,195,619,907,755,424,436,236,639,344,729,103,459,807,656,170]","arrowright","0","1","300","1000","[""0011_N1000_K0300_NOCLIQUE"",""0074_N1000_K0300_CLIQUE""]","",""
"","","","","","audio-keyboard-response","56","338017","0.0-49.1-0.1-1.1","","null","audio_feedback/shuffles/shuffle01.mp3","null","","","0","1","300","1000","[""0011_N1000_K0300_NOCLIQUE"",""0074_N1000_K0300_CLIQUE""]","",""
"","","","","","canvas-keyboard-response","57","341663","0.0-49.2-0.2-0.2","","1858","","arrowright","[717,815,591,937,737,293,40,842,920,754,183,490,656,953,966,426,148,647,619,828,402,875,994,604,877,197,212,485,837,919,181,373,809,762,25,185,322,678,101,246,404,480,188,560,58,232,515,675,839,866,443,377,277,860,297,993,356,444,818,810,761,452,744,287,441,724,696,11,753,247,956,262,990,826,881,26,478,65,540,380,342,552,576,763,386,549,766,327,536,435,970,278,374,612,359,153,900,596,3,340,436,30,672,834,905,162,987,497,483,56,802,159,9,468,413,384,437,461,841,785,372,314,641,771,958,161,446,102,324,595,298,87,43,113,116,14,204,626,344,166,978,228,403,77,891,345,782,431,147,291,664,383,890,257,286,508,865,532,940,768,169,223,605,337,512,730,4,514,203,98,241,683,976,24,207,677,429,142,264,22,791,173,705,243,784,589,882,558,221,848,819,417,857,674,117,516,773,844,312,335,401,520,631,180,49,474,305,328,564,699,872,357,362,279,217,933,495,916,31,899,567,797,226,189,313,44,199,831,751,720,353,120,489,303,963,646,623,887,455,266,614,581,649,63,513,7,369,172,922,250,553,527,796,793,451,346,8,475,137,765,176,688,687,986,371,867,494,912,579,289,442,295,510,584,606,770,151,85,832,99,184,519,535,477,351,984,725,425,740,653,816,694,931,467,973,306,81,95,47,786,613,365,447,103,355,827,853,388,590,863,41,522,685,592,134,175,258,126,157,398,177,566,5,554,745,572,548,507,407,391,34,158,46,617,836,942,506,804,348,719,269,20,902,75,668,96,472,746,281,521,944,412,577,367,350,448,977,845,178,538,97,531,433,210,582,296,211,755,530,923,72,308,846,603,729,873,573,338,562,823,399,610,667,811,38,968,799,410,901,339,427,119,496,71,524,998,575,764,19,299,464,122,620,585,898,479,140,219,302,625,326,432,781,682,633,813,679,273,462,974,54,187,697,285,17,723,618,563,29,37,913,517,759,794,466,965,951,758,270,801,712,658,988,602,445,375,671,661,347,594,533,144,964,62,50,972,498,854,218,908,130,170,2,775,261,268,321,60,991,551,767,946,862,914,982,747,12,636,488,32,889,929,300,167,73,430,79,655,690,847,930,911,588,201,109,422,263,473,256,205,824,941,469,904,168,529,136,88,769,21,74,460,227,486,691,950,459,192,703,925,82,971,627,149,154,556,959,880,55,992,557,607,932,409,67,315,859,476,114,503,571,481,825,541,537,835,673,939,715,731,713,608,294,574,587,387,884,960,945,660,637,871,947,406,927,292,341,999,470,776,408,539,644,829,935,156,336,463,319,100,504,885,756,695,926,206,542,366,995,164,378,216,51,772,534,265,200,861,165,395,983,777,943,710,650,624,858,938,449,924,569,752,329,255,59,90,239,886,70,364,611,457,317,663,111,78,714,195,191,275,394,830,742,634,83,698,735,739,182,921,599,878,471,307,0,955,57,190,748,800,160,657,39,662,15,360,396,962,92,979,84,237,6,812,570,728,803,659,949,331,600,757,379,420,225,121,838,817,545,561,843,76,186,630,245,397,280,309,414,738,635,961,670,107,789,706,543,390,274,903,500,778,954,233,795,66,363,897,415,726,484,135,643,33,640,597,639,528,141,252,52,648,704,152,493,790,138,163,458,236,224,907,124,840,419,316,249,129,814,334,727,370,330,323,693,736,325,722,202,969,700,93,194,580,453,272,642,505,749,220,64,282,892,259,358,967,511,381,128,808,547,69,27,869,718,684,89,133,143,989,652,288,708,230,665,48,733,709,127,231,68,864,310,686,632,18,146,523,888,788,198,852,732,53,716,248,171,651,734,196,318,320,957,434,666,283,598,936,418,895,544,276,780,609,118,909,260,86,850,456,438,42,389,583,621,131,23,792,578,91,440,251,115,145,997,238,807,428,106,586,743,896,94,741,681,996,565,16,112,492,559,601,242,454,311,110,876,193,213,108,525,333,918,526,1,975,833,13,376,235,821,105,368,411,45,254,132,267,179,787,405,352,798,392,301,139,487,906,985,702,61,155,229,874,509,244,304,910,822,423,271,669,917,28,284,868,928,645,692,332,125,894,879,760,240,851,36,400,382,424,234,616,349,779,104,499,568,676,150,290,680,421,711,806,501,628,209,707,980,343,555,593,883,893,783,952,550,915,820,849,701,856,439,615,981,934,123,222,214,654,870,393,629,491,80,174,948,253,721,208,385,465,416,35,622,750,354,215,482,805,361,502,10,855,689,546,450,774,518,638]","arrowright","0","1","300","1000","[""0011_N1000_K0300_NOCLIQUE"",""0074_N1000_K0300_CLIQUE""]","","true"
"","","","","","audio-keyboard-response","58","342887","0.0-49.2-0.2-1.2","","null","audio_feedback/right/coin01.mp3","null","","","0","1","300","1000","[""0011_N1000_K0300_NOCLIQUE"",""0074_N1000_K0300_CLIQUE""]","",""
"","","","","","canvas-keyboard-response","59","348718","0.0-50.0-0.0-0.0","","4249","","arrowright","[562,602,137,529,515,326,143,595,674,393,691,28,353,905,202,382,523,558,132,597,886,916,398,654,662,349,339,307,174,30,858,432,467,61,955,940,121,302,100,266,719,744,856,676,507,560,860,924,427,675,254,265,450,630,923,755,363,316,946,653,423,354,502,707,891,57,822,387,175,789,907,86,7,629,524,656,748,186,218,724,177,847,296,71,76,878,238,473,167,82,156,731,426,982,271,827,487,679,129,582,195,875,493,212,922,720,151,559,506,689,428,232,618,813,377,152,650,199,732,458,153,40,99,575,411,712,981,743,434,710,231,501,749,188,160,20,773,35,690,402,443,908,351,110,321,36,823,430,957,665,477,992,812,606,255,414,802,4,835,540,395,289,919,807,456,84,639,292,702,53,272,479,952,577,615,310,286,657,777,43,843,848,5,737,360,978,131,93,23,397,788,670,971,128,209,805,366,491,409,510,530,734,829,361,775,378,588,604,742,793,480,818,475,11,874,42,161,228,358,311,154,499,729,66,25,89,422,337,223,115,257,883,357,356,939,489,930,102,182,10,504,419,903,580,197,830,735,525,344,975,464,526,425,342,304,765,696,563,394,412,44,758,808,550,1,476,925,371,694,784,88,954,798,512,497,897,460,368,747,961,644,325,585,327,440,252,704,826,282,2,706,285,433,576,198,176,482,134,999,609,214,500,243,538,380,819,64,72,619,895,960,454,806,754,845,536,663,722,697,437,666,814,781,866,591,373,204,553,723,636,894,594,320,330,904,913,124,329,222,548,386,328,52,225,216,247,677,974,533,205,520,695,481,568,741,455,607,388,539,201,147,273,189,833,544,118,269,621,947,27,942,785,169,68,513,51,556,183,165,107,13,779,65,184,855,472,703,635,626,466,284,343,726,318,996,38,470,652,446,870,17,587,846,590,988,972,399,998,914,248,34,887,688,24,484,614,309,941,364,496,956,424,283,405,782,844,237,136,884,32,549,899,242,593,145,471,150,206,270,63,429,623,294,980,599,461,613,235,70,95,185,995,649,589,976,229,821,203,172,12,645,651,634,794,492,69,31,831,267,804,105,87,834,277,872,224,246,546,892,898,404,410,671,92,547,295,931,705,109,959,241,280,108,648,569,39,519,967,759,728,287,757,162,407,278,421,717,3,164,384,943,335,196,622,104,795,816,760,565,392,179,119,211,495,937,408,566,764,713,144,166,850,769,535,715,680,508,561,633,659,727,528,178,485,251,888,91,800,951,928,733,403,288,809,123,763,59,75,465,77,370,258,306,637,882,193,792,752,545,852,293,125,336,820,973,264,207,993,647,857,832,655,431,994,918,625,608,948,902,736,122,239,334,801,817,572,672,521,173,910,441,640,416,60,215,681,953,135,299,514,418,21,259,275,138,436,406,511,774,142,839,799,700,912,557,509,332,158,79,950,932,67,517,494,385,488,543,701,532,990,551,101,709,624,55,281,537,15,958,9,220,661,180,260,579,552,617,664,598,308,756,906,836,627,439,333,790,962,48,234,772,766,791,570,921,187,776,985,631,483,97,19,449,383,116,444,877,771,933,880,592,120,989,29,641,233,263,435,583,379,873,643,391,47,331,313,660,114,359,140,249,452,348,352,83,770,900,881,678,628,730,824,851,876,6,141,837,968,305,300,253,896,632,616,314,605,965,139,200,376,111,969,977,505,155,46,862,447,340,381,362,926,584,638,853,498,322,256,459,693,245,22,396,417,291,26,194,80,78,751,312,240,718,221,250,190,753,210,611,966,113,811,133,90,987,711,244,346,81,893,692,98,33,963,54,14,230,192,803,768,920,716,909,997,554,917,767,601,448,324,612,236,828,541,991,518,276,261,157,41,573,442,516,864,45,37,668,787,420,0,840,74,849,698,531,297,226,279,375,181,16,219,227,620,73,603,738,303,901,586,18,301,740,567,859,445,739,555,838,815,338,527,669,50,865,890,542,986,762,949,298,85,171,350,825,778,683,745,369,478,374,796,451,463,841,970,889,842,191,213,462,127,725,168,578,413,163,863,317,159,936,469,684,869,315,486,415,600,571,682,341,699,438,103,685,534,667,935,810,149,564,574,750,642,610,934,148,938,658,854,687,401,290,468,984,929,117,503,365,945,389,596,8,911,868,474,347,867,390,964,56,130,721,355,708,367,746,861,797,96,927,786,915,62,262,761,522,581,646,112,983,217,686,457,49,714,871,979,319,345,673,944,783,372,208,879,146,453,170,268,126,885,106,274,780,490,94,323,58,400]","arrowright","0","2","267","1000","[""0002_N1000_K0267_NOCLIQUE"",""0055_N1000_K0267_CLIQUE""]","","true"
"","","","","","audio-keyboard-response","60","349944","0.0-50.0-0.0-1.0","","null","audio_feedback/right/coin01.mp3","null","","","0","2","267","1000","[""0002_N1000_K0267_NOCLIQUE"",""0055_N1000_K0267_CLIQUE""]","",""
"","","","","","canvas-keyboard-response","61","355460","0.0-51.0-0.0-0.0","","3910","","arrowright","[682,709,304,517,875,645,22,628,454,482,922,539,321,806,496,568,584,244,378,905,208,430,445,675,355,890,818,90,175,435,968,181,179,662,611,970,79,26,823,422,194,170,954,946,912,641,606,673,421,307,665,134,494,670,169,429,362,541,37,744,113,231,941,989,346,3,223,838,632,727,862,809,572,292,608,168,731,358,746,693,815,328,648,988,879,242,158,835,913,388,325,655,368,591,108,91,826,599,269,960,212,333,475,238,545,187,247,313,870,383,341,969,164,405,556,8,303,807,159,99,406,183,557,577,752,676,892,82,2,399,846,833,361,491,173,243,25,190,226,295,547,396,389,103,287,860,336,380,427,620,132,50,994,612,250,443,778,507,563,939,268,593,958,195,316,377,824,365,260,347,411,115,258,471,264,617,858,644,136,625,438,895,712,186,622,493,7,543,904,933,130,84,278,107,908,532,667,19,13,144,369,972,962,148,463,217,72,827,498,106,508,62,537,907,230,150,119,728,152,643,348,70,533,234,822,635,874,768,331,610,811,686,965,284,841,17,694,274,419,646,467,64,829,188,503,671,769,882,523,15,302,323,329,844,30,33,16,672,924,848,61,684,412,561,376,51,448,48,660,526,726,123,863,793,114,616,967,78,571,520,615,277,500,288,18,691,516,745,699,410,228,597,140,713,698,550,163,350,590,101,293,687,413,456,153,259,490,478,339,296,792,518,753,459,578,519,784,845,374,948,265,402,135,916,71,229,762,756,340,779,521,871,466,878,337,692,56,31,750,201,758,786,184,213,455,797,601,468,773,414,214,39,677,65,511,145,801,757,218,562,283,598,209,700,353,120,979,736,836,499,755,985,528,734,100,657,942,315,420,602,531,738,585,372,940,69,98,192,865,690,432,400,986,961,55,23,176,951,215,945,937,717,705,614,504,780,89,232,489,60,426,280,921,554,224,75,453,639,680,984,487,513,257,724,740,133,640,782,949,918,963,172,525,596,751,424,235,20,605,111,154,415,6,128,461,275,930,783,843,837,233,804,535,439,44,627,774,899,117,319,160,938,587,309,580,481,267,317,182,872,279,542,832,973,121,253,820,256,394,621,385,167,794,708,0,658,40,449,702,351,796,246,387,733,527,859,239,356,96,417,462,976,719,373,999,42,886,211,131,688,359,840,851,896,573,759,594,272,112,754,290,777,613,81,83,146,198,695,909,403,149,766,41,291,579,530,944,864,901,787,492,917,877,919,32,431,689,634,849,343,54,510,649,888,314,839,386,785,206,237,603,808,436,790,4,166,666,701,306,395,799,334,254,749,93,53,546,434,932,522,440,651,207,964,21,216,887,737,656,920,363,706,118,102,67,24,854,320,654,57,735,819,928,652,338,9,524,305,952,88,437,569,344,58,629,703,565,255,781,704,995,143,881,147,205,957,834,122,570,458,681,867,900,477,446,830,996,553,884,770,552,189,297,576,798,47,116,352,326,789,418,156,828,935,609,324,382,35,10,559,842,791,760,897,202,876,718,987,273,803,473,544,950,997,725,219,185,375,959,129,589,564,947,711,447,486,581,647,249,567,763,318,416,812,873,974,330,869,955,138,534,393,332,502,248,720,335,514,476,271,92,174,483,977,157,251,366,85,765,155,495,847,139,788,357,891,488,538,484,77,683,821,903,506,743,853,285,761,674,124,741,595,936,261,141,470,742,252,893,931,199,981,282,856,360,425,104,262,914,975,370,825,469,998,408,441,197,178,707,86,73,451,423,444,210,28,772,191,971,162,626,310,327,299,151,868,915,894,747,222,633,911,457,298,472,624,637,816,14,450,245,653,805,409,540,549,679,992,993,588,137,94,592,980,109,966,721,575,308,171,142,266,795,371,991,767,177,710,716,866,927,551,480,401,630,618,885,474,509,978,722,729,953,623,814,898,560,631,220,956,203,764,501,505,464,392,227,817,771,714,398,384,813,270,548,45,642,661,739,38,485,452,193,342,52,367,59,663,810,241,276,200,697,311,583,574,180,934,46,442,34,600,906,404,586,300,889,650,925,857,428,668,923,800,723,390,566,604,5,312,802,776,407,883,433,558,636,983,36,66,110,74,990,555,880,63,497,515,831,678,536,49,730,68,732,221,80,225,204,349,196,926,281,301,943,125,126,345,1,850,664,910,43,97,381,354,263,638,855,479,12,240,775,165,512,29,460,294,929,397,76,286,607,685,465,161,852,87,669,379,322,529,364,619,902,582,659,391,982,105,127,11,289,27,95,696,748,861,715,236]","arrowright","0","3","267","1000","[""0069_N1000_K0267_NOCLIQUE"",""0057_N1000_K0267_CLIQUE""]","","true"
"","","","","","audio-keyboard-response","62","356687","0.0-51.0-0.0-1.0","","null","audio_feedback/right/coin01.mp3","null","","","0","3","267","1000","[""0069_N1000_K0267_NOCLIQUE"",""0057_N1000_K0267_CLIQUE""]","",""
"","","","","","canvas-keyboard-response","63","358970","0.0-52.0-0.0-0.0","","760","","arrowright","[409,390,898,908,201,721,511,639,725,814,271,598,120,563,823,29,182,429,580,945,827,199,491,273,70,190,41,561,79,647,665,716,697,35,133,452,998,948,234,377,955,556,603,333,436,785,953,715,648,382,838,118,925,761,542,265,204,244,688,841,193,712,488,154,356,553,642,695,747,613,185,941,567,703,211,743,621,930,834,397,887,431,632,330,175,566,532,31,748,309,670,427,372,89,464,514,494,93,686,466,386,369,57,923,753,861,188,995,306,311,245,770,916,796,102,866,740,216,949,13,590,313,253,535,381,690,707,159,479,589,705,15,935,451,192,897,692,86,758,718,845,738,218,357,256,296,787,500,364,848,528,744,50,852,143,782,347,873,959,936,592,167,675,481,840,480,17,113,437,946,826,671,829,646,353,55,23,165,24,484,989,978,448,349,958,895,317,696,685,901,332,913,792,797,803,337,299,687,78,713,922,515,410,847,951,784,572,678,551,18,633,569,473,502,14,328,970,81,94,121,976,176,454,158,257,575,33,30,6,5,858,312,884,516,180,894,583,247,126,600,106,4,510,593,226,601,170,428,200,246,880,467,892,992,525,820,557,786,595,932,187,684,71,434,714,151,508,550,208,112,808,701,105,459,319,805,205,178,214,285,581,371,295,903,418,425,194,822,677,107,842,391,928,380,817,503,529,506,318,833,274,545,46,618,396,207,44,213,129,749,495,77,762,461,594,368,329,746,846,530,42,977,766,860,156,343,417,171,544,223,763,414,759,799,275,694,100,88,891,507,279,537,778,586,415,736,164,531,548,210,373,733,384,370,966,573,137,76,147,20,116,219,920,47,66,348,456,389,980,336,963,209,541,90,125,722,289,266,179,449,968,706,625,474,258,843,517,144,681,584,527,101,651,277,549,869,919,956,652,885,217,232,617,641,543,656,726,284,2,471,909,682,628,361,522,251,173,711,254,477,750,184,614,720,7,608,486,402,804,547,836,326,509,248,777,974,609,287,75,174,457,717,794,131,145,27,739,146,780,249,851,513,899,230,597,322,906,32,947,889,730,288,91,975,680,657,99,655,635,864,888,405,499,771,539,984,627,12,606,198,905,588,252,335,367,734,783,281,942,911,28,420,659,406,839,293,999,577,224,21,915,97,83,220,153,538,445,801,620,912,765,918,338,969,385,10,741,161,666,359,475,262,392,432,669,303,672,22,162,904,568,134,631,876,110,111,472,615,640,316,789,148,867,446,767,637,939,772,239,985,308,408,272,679,877,363,108,186,896,907,221,732,270,183,157,255,719,616,404,661,346,724,327,874,982,937,443,929,453,450,393,197,269,435,558,243,940,819,731,943,465,130,139,723,663,893,378,342,54,993,155,441,351,411,816,403,307,67,900,859,562,127,644,492,490,559,664,702,824,3,321,854,358,831,82,658,395,540,36,325,407,416,612,400,227,521,152,914,668,489,693,768,80,104,524,340,238,807,821,64,423,267,962,965,626,241,458,837,87,84,433,290,983,987,149,623,365,927,865,881,775,117,857,96,140,745,708,150,997,756,60,366,699,169,700,683,394,297,599,469,222,48,460,921,991,565,806,882,304,103,809,142,890,350,376,379,879,374,863,354,986,830,286,931,195,570,61,1,933,387,519,849,596,301,38,751,850,422,136,362,444,302,388,485,554,202,69,643,979,798,571,344,605,602,710,128,727,206,483,49,587,934,971,536,114,815,62,283,800,43,109,250,591,579,278,315,973,493,844,355,498,961,141,58,294,610,439,624,135,360,122,123,810,59,25,578,754,607,560,215,534,305,331,967,619,855,229,37,375,40,653,476,957,638,629,115,412,341,795,487,240,994,660,742,196,828,463,242,964,917,954,85,802,862,497,585,68,300,291,0,298,74,19,424,886,268,752,119,478,225,818,952,636,791,314,773,236,788,871,260,924,442,261,264,160,755,793,233,902,938,972,650,774,813,383,438,781,630,51,760,674,835,235,468,654,622,98,172,576,132,555,960,280,574,320,776,399,981,737,310,689,212,729,878,323,790,676,825,470,191,944,339,263,512,649,430,166,168,832,228,552,662,990,735,875,65,856,419,26,181,496,92,398,440,704,853,764,698,482,324,163,345,667,757,426,533,926,505,352,728,950,604,611,421,334,39,520,231,634,996,413,56,709,523,455,582,124,564,779,504,259,401,189,52,645,138,868,292,11,910,237,45,811,53,691,526,870,276,518,203,9,673,63,8,546,73,282,988,769,16,501,872,812,883,462,447,95,177,72,34]","arrowright","0","4","233","1000","[""0086_N1000_K0233_NOCLIQUE"",""0044_N1000_K0233_CLIQUE""]","","true"
"","","","","","audio-keyboard-response","64","360219","0.0-52.0-0.0-1.0","","null","audio_feedback/right/coin01.mp3","null","","","0","4","233","1000","[""0086_N1000_K0233_NOCLIQUE"",""0044_N1000_K0233_CLIQUE""]","",""
"","","","","","canvas-keyboard-response","65","364757","0.0-53.0-0.0-0.0","","2979","","arrowleft","[886,229,699,554,396,890,985,161,368,927,103,631,781,125,16,675,143,180,642,626,918,286,88,529,238,157,194,144,72,479,375,872,555,17,159,19,632,531,956,802,548,612,713,44,676,239,532,793,666,183,717,904,130,14,549,395,295,462,614,356,404,935,4,401,989,786,572,215,563,740,168,448,880,799,506,571,603,186,429,272,832,33,762,690,928,997,154,938,970,437,280,528,684,162,277,570,315,271,557,761,544,400,851,594,553,993,945,776,69,305,52,273,191,682,263,384,732,724,446,226,202,707,780,285,244,955,536,270,923,720,658,669,304,939,465,680,783,913,726,957,984,346,318,240,910,278,784,586,561,919,698,79,348,908,804,38,779,370,313,409,647,413,550,789,364,188,843,212,163,336,655,187,814,249,692,113,611,547,5,738,568,122,973,377,770,123,455,510,24,47,842,968,636,523,702,755,929,624,461,442,879,303,349,403,119,393,480,73,617,951,310,736,792,812,469,706,509,917,142,520,110,139,203,165,48,265,178,60,195,878,474,884,731,600,63,379,385,433,68,674,805,34,501,900,937,279,293,681,933,82,108,117,569,198,921,205,915,606,829,132,126,138,6,444,503,980,966,866,992,148,242,320,246,457,105,423,344,579,540,114,358,390,355,924,301,135,338,623,608,790,511,964,825,826,643,373,584,775,491,166,389,672,715,850,712,948,516,947,101,653,644,253,552,359,347,324,416,746,860,943,137,441,78,426,593,100,362,153,133,582,399,467,767,292,630,29,445,397,737,111,535,696,374,986,998,104,470,106,414,204,701,267,245,147,662,32,184,909,667,824,177,371,64,988,115,425,219,604,875,160,3,387,392,700,40,492,354,343,649,360,149,361,573,874,704,566,458,871,23,234,430,21,782,638,482,484,486,756,739,329,828,522,816,840,15,821,615,796,451,335,352,102,657,963,534,75,317,521,405,439,941,651,926,934,635,621,151,218,718,189,230,709,411,835,386,417,476,714,334,629,687,575,870,581,719,898,564,256,37,190,750,383,287,233,950,815,306,282,768,932,517,525,519,18,578,697,827,247,595,252,206,35,971,800,883,665,50,817,567,302,852,216,834,693,820,0,80,977,514,991,452,30,196,906,296,158,930,808,341,227,735,889,120,888,365,255,95,670,332,936,217,118,845,97,618,946,833,131,727,507,210,466,765,844,905,81,558,771,857,526,209,145,276,289,627,290,167,357,856,1,49,887,967,894,922,754,530,689,489,485,454,268,745,127,260,694,398,944,20,236,85,497,87,410,837,803,925,728,421,152,663,634,794,969,691,447,559,181,438,443,58,654,299,22,388,76,498,708,518,402,990,376,931,146,620,976,810,975,703,7,764,468,801,903,456,639,84,807,896,583,591,974,592,61,89,193,269,8,92,225,31,753,716,766,983,155,710,321,169,472,959,46,589,57,759,609,515,823,36,504,435,382,264,408,312,545,325,758,897,895,865,235,65,769,838,576,760,668,508,55,854,960,778,369,813,671,93,893,733,10,914,587,859,83,71,873,685,748,262,640,192,407,422,56,171,291,434,912,353,664,994,633,428,841,283,543,182,350,128,619,806,538,391,839,911,763,863,646,406,907,254,241,556,673,562,711,862,818,366,248,427,819,773,598,201,722,319,367,652,659,940,378,70,257,199,179,224,453,330,259,541,882,351,2,637,223,656,542,585,751,74,220,661,920,601,134,96,849,916,300,962,616,231,77,464,688,743,747,175,237,954,228,174,164,116,981,797,987,176,965,136,124,822,580,328,602,342,641,284,109,323,185,982,695,831,258,12,156,11,853,752,471,861,309,314,610,628,440,473,294,705,459,546,322,281,261,953,500,207,431,478,560,625,613,679,211,999,94,333,877,512,588,730,785,275,605,214,98,432,170,45,121,744,721,27,463,597,958,995,891,622,864,892,901,524,99,251,869,327,213,90,316,419,200,791,942,868,846,412,858,867,757,725,645,141,848,345,297,91,339,650,337,660,53,363,420,811,902,683,777,243,298,13,590,9,885,331,978,450,513,381,952,533,66,112,140,678,107,648,436,493,477,495,686,380,996,424,574,232,222,551,487,599,596,499,537,809,86,847,787,788,490,876,972,830,607,774,475,723,979,26,481,326,577,741,483,749,505,494,488,266,949,836,772,173,449,539,742,308,172,67,54,798,311,208,59,415,43,855,899,42,460,307,41,340,150,28,372,288,39,25,565,527,274,394,502,221,51,729,677,197,734,62,496,418,881,129,961,795,250]","arrowleft","0","5","233","1000","[""0048_N1000_K0233_CLIQUE"",""0065_N1000_K0233_NOCLIQUE""]","","true"
"","","","","","audio-keyboard-response","66","365978","0.0-53.0-0.0-1.0","","null","audio_feedback/right/coin01.mp3","null","","","0","5","233","1000","[""0048_N1000_K0233_CLIQUE"",""0065_N1000_K0233_NOCLIQUE""]","",""
"","","","","","canvas-keyboard-response","67","372806","0.0-54.0-0.0-0.0","","5274","","arrowright","[824,168,957,747,182,509,373,289,455,18,726,385,311,903,45,259,63,285,348,916,300,808,990,620,278,928,103,993,3,507,281,411,786,149,709,200,29,730,57,181,633,280,240,199,407,369,825,156,549,130,896,294,376,678,948,512,257,38,531,662,820,251,576,435,145,804,518,44,162,216,926,832,50,567,673,51,331,79,632,696,956,119,999,371,305,668,386,951,558,41,639,866,740,267,562,223,979,448,270,827,981,646,575,179,624,53,239,208,700,669,108,13,849,569,36,364,900,872,290,556,566,771,94,703,42,232,968,409,591,193,454,362,764,238,799,140,226,589,314,77,537,868,495,940,461,219,988,862,254,749,124,410,666,282,387,681,736,885,914,653,691,597,655,932,791,875,882,105,689,629,777,552,738,298,27,613,828,323,844,829,884,106,302,776,233,39,737,58,743,472,994,523,372,708,227,16,699,587,469,859,497,785,648,114,585,530,164,492,841,997,712,429,152,770,801,851,142,504,529,921,131,627,923,468,471,899,397,85,787,275,342,745,888,192,998,420,96,980,640,861,358,365,354,12,838,25,391,40,782,383,625,876,170,643,719,540,783,588,867,126,710,684,5,682,247,442,961,434,526,944,550,334,985,822,520,573,424,644,457,68,32,670,228,542,788,528,430,425,9,977,756,879,421,242,853,560,394,332,312,500,14,637,201,897,802,728,584,969,467,128,172,99,493,780,388,949,169,920,995,479,122,284,679,207,272,307,652,112,936,823,711,288,600,78,907,8,996,10,234,115,631,535,116,59,188,605,54,707,0,564,784,848,111,389,408,954,203,869,271,52,381,883,628,444,931,773,328,598,392,768,767,892,26,2,748,881,416,148,546,449,697,924,790,506,209,4,502,351,82,544,807,570,873,650,819,551,929,83,437,895,515,606,460,758,534,934,110,586,919,384,414,317,304,452,133,987,236,619,155,248,852,942,501,390,675,470,521,361,658,379,753,809,965,286,246,326,415,602,46,794,101,139,565,205,761,100,214,581,910,279,406,195,64,206,308,641,221,230,356,645,185,769,517,417,604,599,687,812,346,43,158,638,906,847,439,252,6,120,714,134,891,303,177,514,595,260,69,154,850,418,338,960,291,917,713,856,938,751,165,755,377,702,559,685,937,477,616,202,401,65,818,333,76,229,405,102,647,475,378,754,792,563,798,701,310,88,255,163,180,939,293,672,136,741,635,962,93,941,797,842,349,398,975,235,399,674,843,92,483,237,795,196,636,984,250,744,428,839,503,614,930,447,231,626,486,601,983,368,915,725,55,778,922,733,490,189,568,335,458,971,213,84,946,722,617,422,953,693,484,464,436,197,496,478,350,966,880,49,864,623,433,243,173,113,47,141,890,320,533,1,498,212,225,522,22,166,878,161,590,651,360,456,345,499,33,615,301,117,952,382,911,541,833,462,367,860,178,579,608,11,705,578,913,525,157,276,283,524,146,874,31,222,750,446,539,735,292,21,137,553,816,129,67,98,813,800,75,482,947,440,256,431,322,694,258,97,901,593,659,261,858,20,732,118,427,772,357,902,649,621,474,835,654,513,765,459,412,935,485,48,894,664,992,594,704,912,720,491,438,676,62,244,325,19,241,545,309,742,393,547,734,905,831,463,933,66,716,480,577,607,760,217,964,739,958,400,352,80,510,370,324,287,865,538,167,71,127,419,978,187,532,830,17,104,215,443,561,450,752,306,7,374,555,815,548,759,945,889,805,762,671,898,74,677,543,642,572,982,95,763,989,186,660,107,580,337,925,175,159,123,603,557,343,592,846,723,220,366,863,135,582,466,402,296,571,536,698,837,727,731,476,35,817,963,204,423,887,72,465,766,959,487,516,109,970,527,893,793,695,508,263,857,877,991,806,814,596,404,634,943,316,656,721,774,622,89,724,153,810,171,657,327,811,269,253,339,264,955,245,190,886,151,432,353,375,138,299,950,363,688,15,667,612,680,611,315,90,266,967,610,218,413,630,854,779,143,871,147,184,125,690,132,836,986,336,826,191,729,494,426,355,73,60,210,909,821,160,395,904,198,28,344,618,583,403,511,23,453,224,121,347,318,81,313,918,341,973,340,86,295,445,706,262,840,274,211,297,834,396,441,330,451,663,715,24,972,746,692,194,34,908,775,37,359,519,273,683,249,686,927,321,150,803,174,70,845,183,56,277,505,870,796,488,609,380,855,665,91,789,974,87,329,319,61,30,176,489,574,268,554,473,717,265,144,781,757,481,976,661,718]","arrowright","0","6","217","1000","[""0011_N1000_K0217_NOCLIQUE"",""0049_N1000_K0217_CLIQUE""]","","true"
"","","","","","audio-keyboard-response","68","374136","0.0-54.0-0.0-1.0","","null","audio_feedback/right/coin01.mp3","null","","","0","6","217","1000","[""0011_N1000_K0217_NOCLIQUE"",""0049_N1000_K0217_CLIQUE""]","",""
"","","","","","canvas-keyboard-response","69","377327","0.0-55.0-0.0-0.0","","1640",""," ","[690,446,424,95,747,348,124,401,461,862,420,318,514,331,818,362,80,198,388,629,28,671,743,104,580,511,200,478,289,491,691,459,798,11,748,472,555,262,516,422,912,947,500,587,655,561,93,968,965,844,110,302,853,395,105,510,507,536,802,63,90,558,637,261,792,835,48,109,964,897,276,163,367,460,244,20,577,779,215,98,196,635,489,734,910,305,418,227,753,800,21,728,248,432,311,617,875,575,75,363,197,483,989,941,374,978,259,212,384,430,301,873,487,915,16,125,115,188,242,794,752,613,646,692,869,652,336,611,709,679,370,518,724,431,349,143,59,608,522,719,983,146,533,568,128,907,158,344,552,413,682,770,741,972,707,269,372,481,974,283,181,782,435,5,352,781,999,476,391,985,992,870,774,400,557,399,675,685,36,310,814,880,458,240,890,920,375,159,967,279,845,296,866,791,502,911,788,535,840,449,99,526,651,410,754,852,324,887,191,423,266,715,199,898,55,896,179,746,695,335,369,703,892,581,595,894,966,615,874,31,716,995,477,368,713,649,219,900,97,553,597,639,140,625,156,0,787,494,733,106,345,441,917,647,254,230,231,457,819,436,26,698,322,669,827,151,626,116,341,102,895,57,610,961,935,630,429,43,642,994,497,538,606,42,411,122,924,796,171,241,45,228,25,226,963,813,353,29,1,257,771,975,574,162,268,379,108,823,554,193,811,619,857,176,863,951,325,513,541,67,382,959,523,877,316,389,300,745,358,437,954,697,10,54,842,274,392,17,521,726,474,708,402,732,505,525,408,678,600,955,414,987,658,278,427,206,714,465,997,596,3,323,906,366,386,721,265,859,756,998,134,303,307,202,464,499,313,404,82,113,977,808,914,182,622,317,858,931,638,239,628,988,383,789,847,260,821,294,153,237,58,674,60,933,687,517,952,812,387,759,850,718,820,508,701,365,92,381,66,340,594,930,398,696,584,425,512,493,980,91,247,572,891,881,306,908,428,47,338,210,934,415,292,996,64,412,855,129,117,173,440,889,492,211,586,448,443,397,86,496,333,152,277,121,150,624,620,320,51,762,49,683,725,85,921,940,670,948,37,22,739,602,70,148,750,969,565,668,904,264,319,699,899,928,288,991,141,705,290,932,735,760,778,205,702,923,559,118,777,342,337,174,776,76,355,766,545,560,990,15,376,738,77,273,438,861,710,19,312,723,407,485,744,490,52,573,633,662,919,822,309,824,251,304,970,804,183,396,468,38,945,78,982,764,666,455,445,138,509,825,641,298,234,742,817,790,112,482,913,89,657,175,40,87,334,976,359,417,81,30,605,585,6,439,749,416,946,673,356,470,883,571,469,515,314,208,405,479,456,145,315,570,246,421,672,588,71,905,677,214,480,957,826,589,550,444,551,107,886,944,155,793,720,486,849,7,339,195,94,612,816,249,385,661,433,593,442,88,645,856,473,364,204,169,616,783,684,454,731,767,659,8,761,815,285,763,546,280,751,147,14,769,542,936,462,916,632,634,287,740,351,993,189,653,598,295,711,224,504,270,299,69,938,614,543,832,644,236,293,601,688,252,530,590,207,484,426,942,960,712,154,62,218,547,631,255,450,843,922,576,297,50,618,879,267,114,765,564,186,854,772,217,809,178,354,831,126,406,123,130,144,498,909,956,111,549,846,225,221,878,350,795,222,185,540,801,172,566,981,44,243,860,377,797,806,284,888,453,452,665,282,836,758,785,133,286,96,373,784,986,939,689,562,830,65,773,184,943,149,534,4,984,229,700,579,233,667,56,582,220,488,84,757,548,132,953,755,694,223,567,167,308,46,537,929,100,627,390,35,656,74,12,165,556,330,127,61,180,599,506,41,101,833,838,275,466,53,519,119,419,949,238,272,34,729,848,263,604,103,663,903,592,893,131,271,603,528,467,529,13,328,704,83,927,170,834,33,2,258,971,950,527,136,378,164,544,636,190,871,810,495,650,371,680,563,501,135,623,885,640,27,142,925,973,157,591,360,799,829,730,72,676,161,531,867,253,660,24,926,201,463,187,736,839,918,532,722,609,607,327,884,346,902,780,23,851,343,727,768,194,807,872,648,347,937,332,901,291,681,786,882,192,865,876,203,39,451,706,868,32,621,213,686,166,737,168,68,326,137,520,250,447,139,232,120,654,643,583,524,958,361,357,539,209,235,73,578,18,9,434,79,380,837,256,775,409,503,321,864,841,403,803,329,664,160,693,471,828,569,216,475,177,394,717,393,962,281,979,245,805]","arrowleft","0","7","217","1000","[""0091_N1000_K0217_CLIQUE"",""0072_N1000_K0217_NOCLIQUE""]","",""
"","","","","","audio-keyboard-response","70","378603","0.0-55.0-0.0-1.0","","null","audio_feedback/shuffles/shuffle01.mp3","null","","","0","7","217","1000","[""0091_N1000_K0217_CLIQUE"",""0072_N1000_K0217_NOCLIQUE""]","",""
"","","","","","canvas-keyboard-response","71","380493","0.0-55.1-0.1-0.1","","1","","arrowleft","[909,781,10,522,370,8,786,347,358,709,547,246,893,651,260,812,844,286,907,729,234,583,164,657,250,166,258,121,585,902,972,642,569,517,773,623,890,944,577,379,484,862,855,440,865,153,580,800,25,510,372,453,354,581,17,108,473,492,572,801,774,532,333,542,177,413,818,772,455,151,687,649,339,852,149,198,956,407,55,133,692,927,504,606,308,629,38,155,806,849,727,716,7,945,850,995,516,458,601,214,479,465,718,406,594,165,461,464,714,319,616,899,408,91,21,825,229,373,3,341,628,653,131,491,88,684,857,399,807,924,875,567,712,655,553,838,58,525,946,603,768,996,586,284,338,265,545,451,919,106,270,815,152,56,113,228,758,894,193,851,876,46,76,952,126,154,248,571,296,706,817,218,643,466,101,134,604,723,958,636,593,142,443,42,116,836,51,130,859,280,445,137,452,540,156,622,791,369,694,35,343,271,879,863,802,505,529,989,845,987,711,24,897,735,385,132,903,602,747,668,136,721,20,291,751,71,908,398,975,922,715,70,460,951,738,667,180,96,269,821,181,910,799,483,470,16,146,968,293,546,426,326,574,266,188,171,617,564,754,488,389,173,243,311,421,289,961,367,123,27,285,350,847,527,182,434,49,511,654,145,539,328,813,441,635,274,704,949,562,376,414,584,331,64,981,670,928,282,885,124,32,301,314,582,947,877,219,761,549,736,790,415,954,209,843,526,971,523,191,254,963,494,185,330,477,4,742,656,663,719,273,298,241,448,809,558,555,746,317,90,174,295,85,920,157,530,430,65,364,794,259,489,342,322,892,797,933,640,395,306,186,411,524,990,73,362,380,695,611,613,245,205,936,357,189,724,792,777,201,1,579,147,438,703,178,953,334,200,160,764,53,135,268,264,103,639,625,377,888,598,878,242,973,886,316,521,938,275,839,410,905,778,708,392,620,28,610,793,660,717,578,393,759,678,220,942,785,661,732,197,86,965,665,869,607,733,387,592,463,402,409,690,261,62,117,212,808,36,502,671,805,15,391,249,480,762,82,396,115,932,816,102,50,916,904,263,162,313,627,829,977,226,59,912,929,915,252,109,866,196,745,960,302,139,235,537,321,403,107,744,238,323,669,819,548,993,672,788,557,497,666,967,626,217,335,501,472,29,208,325,685,363,823,344,345,979,428,563,454,870,565,481,240,478,211,720,986,846,167,247,824,422,766,923,507,760,468,439,677,251,624,681,713,896,216,253,327,287,883,420,184,918,926,424,882,644,78,204,770,34,988,348,351,356,959,605,693,840,891,978,858,476,659,92,47,93,5,304,566,67,11,19,474,621,871,854,97,848,676,48,633,194,830,179,898,412,69,514,691,175,215,969,469,881,698,81,551,634,935,543,68,40,950,561,600,2,381,158,368,60,638,570,437,366,503,705,255,404,417,485,554,383,125,54,206,697,18,495,662,31,701,552,237,769,835,401,277,925,150,203,726,884,740,122,6,9,589,535,435,811,87,427,459,509,23,913,99,262,312,221,352,305,515,120,336,37,202,110,513,874,386,964,457,970,490,831,734,798,22,309,985,199,256,290,776,77,710,748,728,300,95,224,864,906,223,531,360,394,795,948,172,937,148,288,390,83,278,597,168,114,119,233,112,743,84,576,631,75,129,384,538,756,444,814,755,355,911,934,536,400,889,324,418,775,499,559,930,416,630,456,992,615,749,303,674,170,787,231,346,374,159,646,895,917,976,187,837,227,573,431,475,872,700,637,962,914,588,658,429,471,943,375,689,664,12,143,867,696,957,673,789,118,783,232,14,52,980,828,688,467,105,190,765,614,33,371,820,244,966,207,590,100,652,365,599,591,609,560,725,753,861,74,13,544,225,279,79,0,39,647,595,272,94,183,997,447,731,757,779,66,378,449,307,283,104,192,568,161,810,853,682,195,359,98,450,405,111,752,163,361,138,648,984,487,940,519,299,498,771,140,419,575,528,534,340,983,329,500,596,127,921,680,750,826,784,276,856,730,887,900,43,822,741,702,512,486,707,832,423,763,782,722,337,520,61,868,388,518,827,645,612,508,683,541,382,587,873,931,294,26,176,128,780,618,57,239,41,210,632,446,991,767,506,332,842,955,999,80,803,267,169,257,901,315,213,236,144,974,994,833,493,675,686,699,796,496,982,320,230,353,63,72,739,292,433,834,737,619,880,939,650,89,425,297,222,860,556,442,533,44,550,482,349,941,141,804,841,30,998,281,436,318,310,45,397,608,641,432,679,462]","arrowleft","0","7","217","1000","[""0091_N1000_K0217_CLIQUE"",""0072_N1000_K0217_NOCLIQUE""]","","true"
"","","","","","audio-keyboard-response","72","381702","0.0-55.1-0.1-1.1","","null","audio_feedback/right/coin01.mp3","null","","","0","7","217","1000","[""0091_N1000_K0217_CLIQUE"",""0072_N1000_K0217_NOCLIQUE""]","",""
"","","","","","canvas-keyboard-response","73","383317","0.0-56.0-0.0-0.0","","1",""," ","[365,669,659,6,403,586,742,147,88,568,699,330,124,670,174,769,948,33,62,7,729,466,843,592,381,983,321,827,308,5,787,550,9,482,679,938,671,689,786,343,210,501,80,558,350,754,522,162,715,682,898,165,521,333,341,361,70,240,897,933,876,784,518,430,44,614,748,136,782,102,141,862,305,191,996,893,309,106,730,900,497,276,238,941,246,483,808,498,850,415,845,675,920,447,538,665,425,510,963,105,839,219,846,924,322,600,254,803,946,616,505,344,259,171,685,400,587,111,631,21,820,223,419,95,650,997,704,896,884,792,43,717,662,60,99,159,470,304,698,607,127,692,139,382,452,31,745,58,371,287,98,57,285,55,736,450,824,573,137,778,887,138,293,178,280,130,45,772,952,594,56,248,222,674,437,313,229,167,721,311,113,637,853,660,182,2,477,891,746,192,653,547,200,750,412,140,712,327,757,749,193,385,584,511,776,627,268,198,434,272,945,39,906,397,546,500,727,407,20,169,274,702,759,657,160,866,990,459,296,249,815,999,835,528,247,529,53,155,927,780,740,733,632,638,834,593,646,743,603,328,738,253,17,150,579,758,491,473,517,681,864,81,97,201,47,428,485,949,109,571,188,331,967,303,283,970,720,237,915,72,673,37,316,226,936,813,281,496,764,506,991,354,474,807,785,971,161,708,763,126,781,318,181,203,317,387,255,883,877,326,878,349,513,837,959,875,12,869,121,677,868,445,902,96,572,809,849,512,718,654,49,221,548,441,128,378,90,667,353,514,928,83,336,69,633,176,135,994,917,195,914,324,806,892,225,588,832,218,184,315,867,930,338,495,455,690,41,635,75,508,199,838,831,706,549,156,399,711,163,610,110,352,401,857,379,542,257,855,688,484,370,623,358,728,950,604,944,696,183,66,243,275,431,461,79,583,10,64,271,11,89,714,989,376,25,735,922,325,346,836,617,903,840,329,186,830,120,76,298,228,624,133,910,713,640,149,73,954,426,752,264,454,158,556,911,342,894,676,108,737,486,27,606,422,551,585,460,582,464,564,125,812,972,266,565,282,986,744,829,816,913,86,703,599,889,801,701,628,814,523,265,209,885,870,557,530,279,421,504,481,242,488,297,299,168,964,359,310,929,598,577,533,145,372,448,509,774,957,480,804,107,267,773,516,179,693,532,116,100,507,947,863,453,250,499,295,926,143,440,122,553,377,974,50,956,290,369,766,647,449,707,525,82,29,526,621,608,446,851,215,762,479,613,129,962,595,71,644,973,799,164,663,314,438,503,591,103,563,269,413,364,112,154,726,672,652,524,873,540,390,85,306,232,493,177,960,476,879,531,284,175,34,871,865,492,345,273,661,905,104,566,36,335,756,719,907,629,206,383,32,723,575,761,235,620,802,312,212,394,645,196,859,423,252,375,19,94,888,942,487,67,74,709,340,854,256,909,59,626,227,427,194,144,4,270,380,244,768,695,404,939,710,543,722,648,678,367,904,775,984,490,319,467,634,895,368,185,471,289,173,639,187,574,40,767,197,42,683,142,442,940,978,935,734,231,666,872,363,833,576,765,755,18,811,771,753,469,65,420,456,214,332,347,976,408,570,988,810,230,166,384,770,993,636,658,63,360,844,630,208,220,433,320,848,406,348,612,732,783,118,874,793,323,357,953,534,54,545,822,435,796,943,190,951,519,923,655,131,300,30,805,918,985,388,396,912,581,117,535,78,294,515,861,439,207,465,777,880,443,189,3,561,828,77,536,462,823,402,251,818,916,700,489,539,84,180,478,919,819,716,527,494,410,38,981,411,87,562,739,694,643,794,555,847,278,432,826,601,386,123,362,148,119,355,356,157,258,931,982,625,789,405,451,642,697,262,114,286,961,374,987,22,395,649,134,52,288,966,958,292,241,691,980,217,979,858,741,170,68,416,705,622,825,552,619,92,798,429,391,817,560,153,651,398,664,680,686,520,934,841,260,578,334,93,597,921,559,444,842,605,779,684,998,596,852,48,969,424,291,725,992,0,821,541,151,890,46,366,417,152,731,908,35,202,747,245,224,277,115,373,611,91,61,132,1,204,668,101,409,955,339,239,418,436,24,968,797,337,23,760,307,213,795,641,618,28,457,263,977,901,392,414,609,463,15,302,16,567,790,860,301,233,351,788,544,216,881,554,211,899,146,26,932,615,13,800,602,791,937,882,886,389,965,995,537,472,172,393,236,261,975,589,205,468,569,458,656,14,580,925,590,475,856,51,234,724,502,751,687,8]","arrowleft","0","8","200","1000","[""0091_N1000_K0200_CLIQUE"",""0020_N1000_K0200_NOCLIQUE""]","",""
"","","","","","audio-keyboard-response","74","384577","0.0-56.0-0.0-1.0","","null","audio_feedback/shuffles/shuffle01.mp3","null","","","0","8","200","1000","[""0091_N1000_K0200_CLIQUE"",""0020_N1000_K0200_NOCLIQUE""]","",""
"","","","","","canvas-keyboard-response","75","386141","0.0-56.1-0.1-0.1","","0",""," ","[157,600,31,647,421,92,447,905,765,780,740,544,511,947,117,641,359,458,205,823,742,857,572,902,309,719,12,2,22,952,320,172,40,29,513,909,290,730,509,583,627,430,792,67,805,137,150,676,760,187,548,731,258,65,156,256,923,106,74,66,981,839,897,207,115,854,49,958,748,496,214,659,652,987,994,808,913,895,476,131,686,826,87,941,884,575,210,208,853,317,830,468,959,378,443,550,86,728,620,302,27,497,791,603,914,762,976,559,420,407,135,234,773,710,13,636,769,515,460,480,488,683,516,838,182,174,155,634,845,233,326,367,757,776,201,445,59,666,975,841,679,293,209,963,19,882,543,937,26,280,498,735,148,88,346,982,793,630,265,685,846,268,517,904,433,883,921,91,811,639,312,434,985,15,423,716,930,827,226,453,35,794,534,466,781,688,807,80,529,398,277,125,97,893,456,82,439,296,316,957,931,85,817,126,419,424,206,124,690,402,178,338,584,177,962,573,133,708,146,702,996,540,888,44,983,310,711,935,221,519,470,455,358,862,660,564,471,870,51,427,465,279,587,775,116,554,997,992,165,314,158,818,965,693,139,257,547,616,869,42,556,399,650,227,670,611,438,772,800,211,662,410,604,319,218,417,848,311,889,245,855,364,903,444,824,23,300,283,171,6,381,169,747,810,189,714,216,588,955,518,274,493,643,475,90,942,532,403,545,21,188,628,5,232,906,272,785,34,712,552,858,224,558,204,877,850,183,642,713,704,425,815,551,770,143,327,943,510,128,945,400,911,47,230,24,191,675,292,197,467,756,522,606,978,980,305,418,380,803,707,990,610,574,901,449,592,596,437,692,966,324,607,881,787,371,250,912,190,732,746,695,213,500,9,822,45,70,287,814,340,394,308,565,36,560,614,542,944,653,352,473,375,249,68,967,635,271,673,940,625,55,325,646,649,919,875,127,715,948,53,977,426,58,578,782,321,938,561,949,46,991,332,969,654,83,303,706,255,624,933,299,253,485,751,526,608,589,200,816,504,755,61,64,52,81,138,246,166,243,852,736,557,32,533,382,744,615,521,915,799,896,717,917,94,954,788,120,446,17,457,392,621,328,145,989,7,562,833,658,563,54,62,89,530,682,916,512,0,880,629,891,28,431,318,936,181,995,355,738,885,771,835,4,291,789,779,422,254,837,225,580,640,866,843,38,718,783,149,797,667,347,315,10,342,926,372,228,404,304,102,313,405,809,601,623,910,950,370,734,591,489,605,922,849,99,306,469,247,259,73,298,536,602,483,377,266,617,175,72,180,474,330,395,754,334,581,733,384,48,464,348,164,597,761,267,586,657,727,514,63,141,388,705,194,487,114,633,170,613,461,335,523,186,481,351,110,868,193,595,774,752,729,341,43,622,538,78,502,39,721,281,571,590,763,539,549,964,566,851,119,113,76,568,664,865,152,619,546,435,766,344,477,184,96,203,436,507,834,441,929,263,696,577,492,374,222,396,179,927,520,842,301,463,365,16,749,819,998,527,644,777,691,743,860,861,239,242,626,579,631,585,185,41,269,820,524,122,701,856,386,680,345,391,720,196,886,440,217,276,599,111,898,873,14,132,918,890,645,859,270,661,553,363,537,105,84,663,413,339,349,768,353,825,612,499,248,972,79,490,684,795,741,286,555,689,878,262,295,968,925,687,609,241,220,867,416,238,656,651,103,260,273,69,655,700,368,939,836,160,462,333,11,212,665,764,894,30,486,415,56,874,37,442,282,406,506,876,829,75,195,900,219,951,121,750,459,412,677,231,798,986,285,356,168,796,60,129,25,790,452,767,932,361,491,408,648,278,109,362,393,409,261,973,971,93,739,108,112,343,198,887,450,753,57,451,618,357,3,448,366,331,503,390,668,18,892,593,786,323,723,576,202,694,832,236,414,678,123,899,252,535,671,505,428,472,240,879,801,130,928,672,98,215,275,840,264,508,745,737,478,294,907,722,100,681,864,813,784,322,297,844,1,20,71,531,50,709,724,570,956,828,142,674,482,979,153,946,237,961,387,759,251,101,401,802,908,376,369,432,934,397,725,821,118,429,924,107,360,288,379,778,307,501,669,77,162,33,567,144,337,697,541,871,863,192,699,698,528,726,154,167,336,847,411,872,373,244,223,173,454,806,159,988,831,350,140,389,354,161,993,582,383,525,284,235,804,484,960,147,329,494,385,920,970,151,104,569,134,758,703,176,594,984,163,812,632,8,999,199,289,953,495,637,974,479,136,598,95,229,638]","arrowleft","0","8","200","1000","[""0091_N1000_K0200_CLIQUE"",""0020_N1000_K0200_NOCLIQUE""]","",""
"","","","","","audio-keyboard-response","76","387406","0.0-56.1-0.1-1.1","","null","audio_feedback/shuffles/shuffle01.mp3","null","","","0","8","200","1000","[""0091_N1000_K0200_CLIQUE"",""0020_N1000_K0200_NOCLIQUE""]","",""
"","","","","","canvas-keyboard-response","77","389057","0.0-56.2-0.2-0.2","","0","","arrowleft","[724,848,119,789,337,122,451,901,63,763,51,602,826,928,969,716,554,950,29,739,902,210,41,507,431,190,327,251,300,49,350,777,795,173,141,513,579,985,490,91,116,998,224,962,727,532,621,151,263,140,890,154,488,891,410,111,195,226,268,610,736,197,699,886,825,188,463,782,213,25,358,201,473,283,481,34,695,865,786,683,919,791,262,741,622,770,400,847,896,275,126,389,388,375,645,682,104,184,170,42,248,334,75,883,362,247,315,307,832,163,374,858,183,309,846,991,604,804,28,443,469,567,686,775,939,752,588,963,949,577,314,107,164,96,368,476,439,354,877,519,340,722,967,943,341,754,808,496,364,274,758,449,3,191,702,287,866,64,764,78,656,256,914,387,455,922,46,658,236,660,505,198,551,632,23,873,218,511,535,101,259,692,778,926,603,662,895,800,952,240,675,87,38,844,306,508,328,336,845,870,223,769,974,324,157,377,672,856,203,668,372,155,570,558,84,208,321,58,21,393,114,348,726,32,839,549,619,379,30,483,880,951,948,95,33,899,11,874,24,738,781,733,418,772,429,691,493,44,906,352,148,676,667,444,757,253,130,512,204,746,305,176,105,887,885,391,842,181,131,317,977,712,872,964,461,249,361,545,937,390,794,569,79,286,346,663,528,453,983,830,76,882,98,654,987,123,221,884,325,756,978,959,696,704,636,301,124,294,749,979,813,10,644,179,103,973,316,180,931,497,713,9,638,189,193,506,266,269,575,349,178,811,407,47,867,220,765,19,121,855,815,737,428,562,480,426,288,494,720,322,912,291,929,241,371,589,167,97,941,547,343,450,608,703,697,73,581,128,584,229,333,861,320,421,674,525,342,441,55,118,20,597,719,793,57,536,814,471,827,396,381,231,466,976,106,498,40,27,909,868,86,133,482,834,965,820,356,406,612,787,916,235,376,566,427,304,745,412,339,143,837,144,472,242,710,238,945,970,626,366,215,273,13,501,759,731,502,448,282,264,69,82,135,66,639,120,723,175,383,524,227,958,217,543,518,993,851,402,956,944,417,435,212,538,665,194,430,310,743,780,136,611,564,921,159,468,260,862,457,698,831,192,911,281,222,296,5,637,83,729,760,552,818,550,147,338,71,196,816,267,576,70,961,718,957,807,618,280,553,474,386,403,761,984,540,617,990,520,614,587,689,835,186,613,773,541,542,302,666,14,166,246,595,559,907,50,853,153,643,539,999,17,409,458,728,852,565,378,39,26,125,265,0,734,270,332,534,628,423,467,823,252,642,869,415,641,798,80,573,329,680,996,803,85,424,355,585,16,211,486,918,843,202,605,859,233,690,560,129,465,495,938,214,930,904,392,801,679,805,583,37,673,290,548,646,531,2,245,477,735,416,297,661,687,446,799,701,228,108,292,326,216,61,946,35,384,652,347,875,624,373,591,138,445,563,510,995,244,908,678,243,927,960,117,62,706,651,561,982,986,199,152,74,272,821,414,968,578,888,60,849,299,767,836,685,6,917,382,819,162,456,487,132,841,900,992,664,714,156,454,935,254,522,168,434,65,276,295,633,744,206,237,52,812,806,708,479,149,893,616,59,523,864,68,397,934,293,258,630,925,48,942,478,323,915,420,631,878,898,649,571,776,615,182,516,313,491,592,897,53,437,546,232,500,225,411,923,544,854,810,363,954,470,997,367,365,289,72,230,318,109,462,913,732,436,657,924,857,640,725,464,688,762,99,625,903,308,145,485,484,22,335,261,910,677,174,947,345,161,572,312,475,425,920,459,953,93,92,871,413,442,171,766,981,401,165,892,966,200,12,768,905,721,177,747,284,860,127,408,142,750,748,648,15,205,89,319,18,452,515,596,889,239,684,530,936,753,54,43,850,527,369,385,277,489,994,955,433,499,8,257,598,705,370,829,593,988,1,863,158,102,771,394,45,4,404,971,36,351,607,840,187,940,359,609,100,629,278,599,529,932,311,792,784,881,670,517,655,659,330,980,647,504,298,438,7,255,234,353,169,790,590,817,822,582,824,344,380,653,989,876,669,460,31,594,788,419,838,894,700,447,809,623,285,150,110,797,395,398,709,185,707,533,503,600,580,601,250,650,785,740,568,796,693,634,219,717,879,933,711,331,828,422,586,751,77,514,730,492,81,112,694,207,172,802,574,972,137,360,556,209,526,271,742,774,537,67,160,399,88,635,440,90,975,509,555,113,681,405,779,432,115,303,627,755,833,134,606,56,279,671,94,715,783,620,139,357,557,146,521]","arrowleft","0","8","200","1000","[""0091_N1000_K0200_CLIQUE"",""0020_N1000_K0200_NOCLIQUE""]","","true"
"","","","","","audio-keyboard-response","78","390275","0.0-56.2-0.2-1.2","","null","audio_feedback/right/coin01.mp3","null","","","0","8","200","1000","[""0091_N1000_K0200_CLIQUE"",""0020_N1000_K0200_NOCLIQUE""]","",""
"","","","","","canvas-keyboard-response","79","391855","0.0-57.0-0.0-0.0","","0","","arrowleft","[666,500,759,726,74,671,713,79,796,67,694,360,868,599,447,58,83,358,795,305,710,832,59,931,446,182,479,347,887,251,396,66,865,261,970,385,194,483,44,164,25,926,71,117,682,498,997,932,840,588,42,916,328,943,162,580,616,571,429,199,48,55,591,621,410,962,525,34,237,349,15,951,542,202,224,295,699,450,422,321,649,853,638,973,990,529,85,901,230,820,138,722,555,101,652,127,411,310,761,704,933,388,2,582,751,955,145,775,496,361,662,886,383,28,455,989,809,137,541,203,90,972,332,592,792,805,698,430,20,23,282,745,114,76,390,86,123,151,855,228,680,465,661,940,837,493,94,644,122,132,938,850,244,434,218,68,234,935,702,573,707,375,714,158,641,270,954,524,499,108,136,281,903,32,364,478,876,830,335,587,461,824,91,174,12,247,473,284,656,622,433,181,685,40,839,856,777,827,487,623,474,729,790,459,597,763,258,651,188,208,740,909,655,778,586,494,907,437,838,551,538,384,810,118,440,610,817,780,213,215,716,490,301,111,219,81,196,501,867,534,259,432,99,734,754,899,758,846,103,774,510,979,851,149,177,336,737,412,431,527,789,797,38,147,857,95,841,315,264,922,918,996,423,523,279,75,355,821,417,107,900,276,312,442,732,185,198,760,560,764,690,738,784,575,825,746,5,120,630,415,878,293,545,139,488,563,602,398,324,46,418,828,6,303,994,681,231,245,428,175,512,971,695,968,373,975,243,24,357,670,441,967,794,254,937,502,765,463,650,522,635,528,782,862,513,786,657,721,697,472,872,31,864,409,475,124,252,438,647,425,589,280,608,462,936,168,464,157,692,753,506,19,426,511,93,749,879,153,323,359,720,150,88,870,533,768,36,985,382,329,583,723,408,163,9,791,632,735,337,403,976,387,981,834,115,413,885,910,186,601,141,717,646,927,752,14,603,572,416,236,190,367,725,547,596,779,235,945,319,912,109,891,393,706,210,183,380,211,376,238,811,296,807,49,339,609,171,356,874,875,1,397,73,852,860,60,605,277,482,863,739,570,362,688,64,816,537,604,508,728,930,705,615,526,454,859,906,381,98,260,964,294,736,256,700,889,914,112,618,338,531,265,915,921,843,262,142,577,214,62,249,902,54,169,286,743,679,232,987,110,514,193,241,155,61,585,470,581,919,977,421,180,391,757,342,129,676,50,436,351,17,530,57,173,378,561,822,257,898,400,833,831,787,453,942,505,484,509,322,308,302,892,861,84,569,624,950,953,771,146,35,888,711,923,221,402,917,696,595,724,557,291,594,770,719,209,924,130,881,363,665,275,880,467,590,334,691,600,793,65,598,984,998,947,576,553,370,636,298,890,517,952,69,913,648,934,154,848,407,7,41,584,105,957,664,866,974,678,92,948,750,161,195,82,317,543,748,668,956,674,283,368,742,345,290,806,773,456,669,558,314,480,568,556,443,871,654,371,767,966,439,788,369,684,160,21,366,520,304,689,113,131,747,999,532,884,377,167,703,204,521,427,686,929,273,405,772,353,144,645,451,471,614,959,799,246,731,419,812,330,637,477,854,271,905,844,842,908,72,212,579,104,116,911,503,3,406,516,53,222,326,18,444,783,77,392,893,673,492,39,395,272,165,52,995,346,928,667,785,491,223,675,476,179,489,135,519,229,564,22,292,263,540,755,730,207,365,289,394,633,628,978,189,333,965,904,119,187,481,267,414,239,539,969,70,836,849,11,125,897,949,544,567,549,404,424,452,660,379,26,701,133,354,617,30,327,800,87,466,33,331,159,300,762,963,992,200,946,939,344,819,458,643,313,554,201,448,97,536,718,449,128,350,178,687,226,548,873,895,776,51,659,958,217,672,882,982,869,216,712,663,43,340,13,709,172,16,220,845,140,266,708,248,121,80,4,829,63,45,741,744,677,309,206,306,170,399,518,766,205,607,78,858,504,814,89,47,941,469,389,565,835,803,497,683,562,100,348,552,566,693,983,515,460,192,96,804,727,639,593,626,653,102,629,980,316,546,307,318,29,268,191,920,808,10,56,620,535,883,197,27,288,468,715,925,435,813,818,253,8,176,486,166,269,227,613,495,250,126,769,823,631,826,847,299,372,877,255,756,658,961,242,341,606,993,550,287,574,801,944,233,274,106,625,225,485,896,612,386,152,320,798,988,611,278,802,991,627,297,894,0,352,240,559,285,134,733,986,960,37,640,325,401,374,507,343,311,445,156,184,634,143,578,642,457,148,420,619,815,781]","arrowright","0","9","200","1000","[""0034_N1000_K0200_NOCLIQUE"",""0001_N1000_K0200_CLIQUE""]","","false"
"","","","","","audio-keyboard-response","80","393072","0.0-57.0-0.0-1.0","","null","audio_feedback/wrong/error01.mp3","null","","","0","9","200","1000","[""0034_N1000_K0200_NOCLIQUE"",""0001_N1000_K0200_CLIQUE""]","",""
"","","","","","canvas-keyboard-response","81","394752","0.0-58.0-0.0-0.0","","1",""," ","[915,266,222,992,180,76,739,891,315,887,430,52,423,15,380,2,412,228,70,711,366,373,167,809,603,313,480,515,522,61,428,140,234,194,196,593,468,833,69,850,62,417,29,680,543,682,534,837,257,90,448,202,397,290,687,352,918,34,457,447,736,135,649,60,227,385,309,938,892,472,912,786,776,528,303,608,700,658,564,997,343,709,576,788,553,296,346,594,939,986,201,482,693,26,165,506,311,239,873,109,807,356,544,743,245,398,384,571,630,386,332,931,291,81,87,718,960,908,671,11,674,207,44,566,144,749,716,865,546,4,210,393,785,35,538,590,240,722,748,970,445,53,899,282,112,97,726,426,27,272,100,643,742,767,519,122,324,609,190,875,588,963,752,490,341,731,659,5,851,98,127,934,623,672,205,864,628,111,879,972,25,178,14,82,284,334,289,20,584,721,55,497,216,902,157,755,150,316,94,214,563,160,390,247,642,420,842,529,607,969,83,612,326,402,877,956,41,987,487,186,16,993,595,442,138,751,470,350,703,141,855,307,781,436,847,504,349,8,297,320,994,71,387,554,933,213,991,175,224,747,342,539,978,535,913,115,829,50,602,705,193,505,773,148,409,54,801,948,242,774,283,295,686,308,204,524,797,96,962,312,274,217,410,465,964,164,460,704,459,305,476,635,177,888,203,101,232,72,783,849,513,361,339,19,18,77,301,897,662,12,477,325,429,841,67,419,575,197,667,616,904,936,637,677,273,294,868,814,648,914,526,446,494,9,517,782,43,13,883,124,411,354,613,453,367,137,884,73,249,930,370,922,811,215,905,979,21,243,848,578,22,675,496,221,483,548,669,195,984,211,666,733,898,770,265,999,3,256,871,878,255,438,650,277,694,219,885,258,652,793,715,365,134,403,798,580,654,937,340,696,862,271,845,264,804,63,977,161,220,812,17,154,949,276,107,799,431,510,473,508,805,775,685,59,860,500,56,866,907,162,333,151,182,434,108,695,84,768,117,900,990,199,600,298,639,579,511,452,118,399,244,502,86,789,541,74,435,557,729,114,750,136,834,592,24,382,363,802,187,218,765,89,585,924,723,278,51,189,597,269,344,516,906,518,191,142,0,846,556,876,944,287,920,235,872,433,835,790,989,92,831,481,861,766,170,870,347,552,746,653,80,184,896,288,364,926,42,619,328,911,275,437,976,828,757,589,88,530,941,826,200,304,206,248,882,38,540,973,791,689,681,321,462,209,965,527,856,407,396,676,568,125,33,113,719,173,622,408,91,163,859,358,633,330,932,388,587,40,974,591,738,656,156,310,259,455,507,572,660,372,854,66,714,624,450,7,251,231,78,57,30,229,586,443,405,499,37,618,707,68,317,629,479,921,383,981,820,93,988,853,147,728,777,547,49,254,179,929,583,951,168,498,425,336,119,469,444,491,803,952,238,31,942,957,230,688,827,514,181,889,581,391,292,262,923,501,466,857,260,166,806,252,943,679,663,664,85,512,306,720,146,651,378,533,886,47,449,176,23,985,800,632,389,741,327,753,657,188,174,708,641,314,699,610,99,509,787,241,634,300,432,562,819,567,712,46,577,627,874,338,495,598,745,302,640,458,208,909,456,852,532,713,169,734,520,836,198,947,737,869,961,545,58,225,998,523,815,406,565,401,725,531,626,75,794,764,103,945,574,821,36,843,374,758,549,881,727,120,958,485,413,467,226,422,895,570,959,596,6,319,299,762,724,357,493,489,966,149,542,337,740,416,424,355,690,840,982,967,910,644,478,779,582,212,375,744,759,950,761,415,400,394,427,808,159,28,537,281,980,995,65,953,377,772,286,404,362,599,351,233,270,461,555,172,250,778,824,925,267,754,763,392,439,263,558,45,454,661,121,418,867,996,817,684,293,698,484,471,893,104,145,735,521,614,702,440,830,131,816,253,116,573,605,106,192,329,890,237,636,10,39,525,946,670,488,710,655,110,692,464,102,903,463,359,155,683,395,143,697,810,348,379,126,486,280,701,844,971,625,128,928,105,647,611,620,560,32,863,171,223,285,838,975,901,183,818,331,780,858,646,601,381,492,839,441,152,638,730,955,261,760,604,935,823,668,569,133,536,368,606,1,706,323,369,968,792,825,917,475,246,414,645,139,916,665,771,559,551,129,880,983,927,236,268,318,64,353,673,79,561,894,371,474,621,95,954,678,158,503,769,322,345,132,919,615,813,130,153,550,48,185,717,451,421,691,784,756,832,631,376,940,123,822,279,617,335,732,795,360,796]","arrowleft","0","10","183","1000","[""0065_N1000_K0183_CLIQUE"",""0018_N1000_K0183_NOCLIQUE""]","",""
"","","","","","audio-keyboard-response","82","396018","0.0-58.0-0.0-1.0","","null","audio_feedback/shuffles/shuffle01.mp3","null","","","0","10","183","1000","[""0065_N1000_K0183_CLIQUE"",""0018_N1000_K0183_NOCLIQUE""]","",""
"","","","","","canvas-keyboard-response","83","399183","0.0-58.1-0.1-0.1","","1582",""," ","[456,863,526,304,61,729,723,166,851,368,737,787,980,758,3,139,738,832,432,146,246,326,755,301,354,18,843,784,786,177,871,985,78,51,458,566,440,794,196,70,999,558,779,395,660,979,281,613,443,59,772,962,110,19,514,569,33,475,921,744,691,8,180,904,822,474,285,38,789,487,179,671,267,120,938,394,802,894,837,54,862,656,436,117,264,761,32,693,652,826,890,347,725,770,65,260,550,704,769,874,564,15,813,682,359,226,490,869,855,925,111,71,297,716,27,280,20,555,169,887,953,637,115,274,258,703,167,886,835,646,188,423,971,151,173,99,535,949,399,266,596,213,573,307,489,283,45,248,739,350,373,94,66,788,927,88,156,320,187,690,444,437,351,508,539,455,24,632,247,560,224,546,492,567,782,356,544,495,277,653,233,393,947,164,954,404,983,427,556,603,641,958,538,529,993,231,485,946,183,970,337,536,460,56,403,659,502,435,476,268,624,767,801,5,35,854,576,181,93,30,621,49,143,575,878,805,201,781,466,36,856,348,147,926,387,922,842,467,118,861,981,915,303,525,512,741,77,0,121,763,852,245,867,428,418,672,700,469,371,480,108,711,252,563,945,651,486,940,760,676,154,686,931,666,124,839,634,422,542,289,168,937,126,228,406,211,647,584,991,722,507,209,298,242,405,355,58,380,279,581,875,261,450,144,442,939,308,338,162,645,493,905,477,736,218,392,125,170,478,868,138,814,882,633,521,259,916,269,407,715,764,694,685,920,461,568,178,914,951,846,734,10,680,847,597,600,618,604,923,113,409,776,791,845,80,533,662,668,119,344,447,718,551,574,200,150,850,919,335,473,649,582,992,783,230,857,936,72,934,499,431,327,955,250,732,735,553,823,616,184,270,44,655,255,25,85,318,189,683,918,591,172,501,504,293,876,141,907,587,853,950,453,717,207,667,724,620,145,26,222,714,588,165,37,998,426,609,309,800,63,658,291,287,957,757,488,670,16,299,312,611,547,759,997,798,294,572,829,540,796,214,952,873,300,775,721,824,602,410,86,452,2,402,205,593,599,401,543,912,639,961,697,396,336,481,996,346,244,562,752,642,995,123,87,803,4,903,134,91,516,311,669,753,193,930,378,333,82,415,713,771,748,497,675,109,606,677,990,155,463,449,13,820,271,638,899,229,420,830,7,106,765,360,836,731,74,678,959,319,83,831,519,265,701,688,11,439,795,901,692,799,142,595,81,62,592,628,777,860,381,534,698,370,825,523,537,349,358,445,53,943,323,34,586,522,462,710,571,605,877,17,421,785,105,626,598,881,726,430,601,664,870,357,50,69,774,137,976,459,433,749,171,234,322,317,833,554,778,190,39,743,708,454,712,253,457,79,913,153,198,577,216,438,276,41,838,897,527,84,727,249,23,376,227,199,225,932,367,379,585,984,630,68,100,810,610,520,751,629,969,793,292,158,790,484,674,42,324,975,742,413,883,238,880,239,807,9,220,665,933,424,132,506,133,811,412,149,236,363,278,559,840,549,212,55,197,157,273,22,398,195,745,219,339,654,73,204,827,375,332,305,673,816,254,541,911,989,90,306,978,174,40,967,702,681,532,644,159,1,491,902,625,369,963,531,386,684,594,92,513,929,103,614,896,98,707,194,160,648,687,733,175,28,128,773,817,640,206,906,114,191,408,129,819,366,909,973,780,615,679,935,235,441,960,928,96,419,812,898,657,622,483,342,334,496,988,706,865,806,372,272,130,217,505,451,328,313,747,762,627,804,500,263,528,107,892,364,385,942,310,163,414,580,754,48,565,623,728,221,237,583,494,362,695,705,557,60,104,650,809,46,818,302,148,352,365,31,956,720,296,135,29,176,256,97,635,353,608,797,331,866,468,941,429,361,740,232,286,545,203,341,746,340,465,202,631,552,390,210,548,986,730,416,186,643,966,964,828,215,619,64,470,518,116,636,122,131,290,446,589,329,579,102,768,503,848,208,471,766,43,316,994,243,464,578,472,498,561,95,982,661,879,67,510,917,808,185,884,844,699,47,448,12,223,330,127,889,965,834,968,425,136,948,6,590,719,987,325,750,709,888,262,275,315,400,530,257,321,241,411,663,434,974,192,482,383,251,295,417,382,612,509,910,895,389,161,21,89,140,377,101,900,345,570,849,841,977,607,284,908,944,859,524,152,397,756,872,864,815,391,515,57,517,479,76,689,893,617,384,14,696,112,282,885,374,75,891,924,182,240,511,821,972,792,52,343,388,288,858,314]","arrowleft","0","10","183","1000","[""0065_N1000_K0183_CLIQUE"",""0018_N1000_K0183_NOCLIQUE""]","",""
"","","","","","audio-keyboard-response","84","400463","0.0-58.1-0.1-1.1","","null","audio_feedback/shuffles/shuffle01.mp3","null","","","0","10","183","1000","[""0065_N1000_K0183_CLIQUE"",""0018_N1000_K0183_NOCLIQUE""]","",""
"","","","","","canvas-keyboard-response","85","402006","0.0-58.2-0.2-0.2","","0","","arrowleft","[524,144,0,411,128,155,108,928,376,825,670,646,402,325,123,488,215,998,163,406,62,90,80,288,482,159,38,213,847,754,189,10,385,369,480,456,578,270,48,383,220,989,119,286,871,814,431,964,350,187,609,595,861,291,180,358,969,479,554,197,58,426,491,474,20,882,921,158,569,135,272,85,784,21,492,931,619,419,813,642,647,942,245,32,886,550,179,783,545,401,206,648,879,562,452,877,809,961,178,264,579,296,441,157,807,361,767,176,672,332,427,424,60,559,164,769,98,748,634,93,722,876,171,375,202,258,366,639,235,990,429,677,413,262,515,226,789,845,519,684,755,919,246,551,788,476,860,380,43,216,757,896,106,828,635,477,614,726,75,981,440,912,17,601,340,265,468,41,946,230,884,145,862,231,192,835,4,978,640,950,948,29,848,169,261,497,161,281,504,322,597,77,843,875,129,310,241,787,967,152,67,183,267,433,713,120,251,342,938,715,926,394,412,16,885,448,499,725,170,592,55,509,625,853,517,234,976,703,987,500,564,982,530,817,416,130,774,980,576,243,717,280,514,820,91,846,925,555,895,495,257,338,513,343,923,628,728,132,87,512,760,859,995,172,915,636,567,486,727,940,971,839,972,908,99,826,160,414,503,142,133,438,693,323,371,165,653,483,449,209,527,473,673,150,143,379,549,372,134,355,629,803,373,450,439,484,933,405,275,392,529,723,201,694,193,297,795,487,1,690,229,832,613,8,94,345,618,374,588,698,79,293,900,485,883,621,46,631,481,936,679,590,705,18,888,581,667,198,662,756,744,352,292,750,407,121,901,699,494,616,944,587,516,831,387,309,140,367,466,525,364,599,365,644,470,711,501,316,546,410,804,792,274,116,335,417,294,638,15,52,205,50,866,867,793,154,304,51,779,54,260,47,454,168,543,64,881,68,211,44,897,689,277,708,785,126,458,678,146,790,391,752,102,212,889,854,218,979,73,781,35,941,533,577,666,660,56,6,887,890,608,645,688,279,149,602,963,319,255,63,761,707,624,580,772,125,502,259,432,273,249,61,538,271,344,236,669,76,287,84,57,478,463,965,805,254,930,175,339,388,898,937,400,935,384,863,13,691,430,864,598,924,370,3,668,225,537,913,156,977,706,712,276,663,190,295,521,460,418,794,583,446,572,425,747,654,681,759,798,818,651,324,739,782,742,5,253,434,508,490,107,266,738,194,34,505,812,650,397,849,498,36,649,110,539,9,574,827,596,603,951,920,210,368,166,526,124,435,566,604,217,975,420,131,219,328,82,23,398,552,770,686,922,467,573,389,932,753,894,911,991,765,153,943,307,829,560,899,378,313,436,966,671,49,802,103,263,953,565,968,528,852,453,582,408,346,837,622,403,244,395,553,850,112,702,496,348,665,78,682,799,960,720,643,109,31,615,741,745,113,675,26,404,111,571,14,353,285,880,278,199,623,824,985,762,842,30,874,290,282,37,811,637,232,568,69,734,89,659,447,692,680,337,59,104,298,341,167,997,542,137,71,633,927,611,39,791,593,661,983,544,743,999,870,547,399,857,489,563,248,902,136,148,462,945,851,556,239,591,221,19,66,730,357,362,95,301,181,86,664,510,331,834,173,892,396,891,952,115,317,289,696,45,557,354,284,455,714,858,53,840,469,735,523,195,939,865,139,600,22,610,575,204,268,237,70,844,758,522,973,806,329,421,303,336,318,746,816,797,65,993,856,697,570,531,326,855,777,558,445,786,393,541,709,974,12,461,823,247,191,299,442,916,444,182,390,381,428,773,620,718,868,630,308,959,674,918,910,917,92,652,7,315,947,641,929,242,507,984,465,147,934,731,906,184,196,457,775,127,118,658,101,188,28,451,954,96,330,988,11,312,617,356,151,719,763,627,227,766,100,676,203,97,252,996,970,81,228,733,869,956,548,957,872,422,377,233,360,904,207,656,269,415,700,721,905,302,701,736,320,214,535,695,24,778,223,833,815,117,585,685,471,584,511,283,186,224,314,40,409,327,914,907,796,821,443,632,729,819,540,958,589,838,208,174,657,493,333,724,822,42,114,737,830,300,605,222,506,994,138,740,334,351,105,518,586,459,836,475,321,25,437,238,841,808,185,801,909,903,751,810,771,687,764,704,732,464,992,710,141,607,949,27,962,594,955,2,256,347,749,363,800,200,162,683,878,520,561,305,33,88,83,306,536,250,382,240,423,72,986,74,386,768,122,359,873,655,606,716,626,893,177,532,612,311,349,534,472,776,780]","arrowleft","0","10","183","1000","[""0065_N1000_K0183_CLIQUE"",""0018_N1000_K0183_NOCLIQUE""]","","true"
"","","","","","audio-keyboard-response","86","403222","0.0-58.2-0.2-1.2","","null","audio_feedback/right/coin01.mp3","null","","","0","10","183","1000","[""0065_N1000_K0183_CLIQUE"",""0018_N1000_K0183_NOCLIQUE""]","",""
